"Color","acc","accuracy","average_response_time","avg_rt","background","block","canvas_backend","cate","clock_backend","color_backend","compensation","coordinates","corr_resp","correct","correct_resp","correct_skip","correct_test_resp","count_Inst1","count_Inst2","count_Inst3","count_Inst4","count_Inst5","count_Inst_test","count_block1_loop","count_block1_seq","count_block2_loop","count_block2_seq","count_block3_loop","count_block3_seq","count_block4_loop","count_block4_seq","count_block5_loop","count_block5_seq","count_experiment","count_fdb","count_getting_started","count_logger","count_mix_skt","count_mix_skt_swp","count_name_stim","count_prn_skt","count_prn_skt_swp","count_repeat_test","count_resp","count_skip","count_test_block","count_test_loop","count_test_resp","count_test_resp_seq","count_test_seq","count_welcome","datetime","description","disable_garbage_collection","empty_column","experiment_file","experiment_path","font_bold","font_family","font_italic","font_size","font_underline","foreground","form_clicks","fullscreen","height","keyboard_backend","live_row","live_row_test_block","live_row_test_loop","logfile","mouse_backend","opensesame_codename","opensesame_version","psychopy_waitblanking","repeat_cycle","response","response_resp","response_skip","response_test_resp","response_time","response_time_resp","response_time_skip","response_time_test_resp","round_decimals","sampler_backend","sound_buf_size","sound_channels","sound_freq","sound_sample_size","start","sti","subject_nr","subject_parity","time_Inst1","time_Inst2","time_Inst3","time_Inst4","time_Inst5","time_Inst_test","time_block1_loop","time_block1_seq","time_block2_loop","time_block2_seq","time_block3_loop","time_block3_seq","time_block4_loop","time_block4_seq","time_block5_loop","time_block5_seq","time_experiment","time_fdb","time_getting_started","time_logger","time_mix_skt","time_mix_skt_swp","time_name_stim","time_prn_skt","time_prn_skt_swp","time_repeat_test","time_resp","time_skip","time_test_block","time_test_loop","time_test_resp","time_test_resp_seq","time_test_seq","time_welcome","title","total_correct","total_response_time","total_responses","uniform_coordinates","width"
"NA","100","100","4708","4708","#ffffff","0","legacy","Old","legacy","legacy","0","uniform","j","1","1","undefined","NA","0","0","0","0","0","0","0","NA","0","NA","0","NA","0","NA","0","NA","0","0","0","0","NA","NA","0","NA","NA","0","0","5","0","0","0","0","0","0","Thu Mar 10 18:49:52 2022","The main experiment item","yes","","assignment1_final.osexp","D:\UoM\course\semester2\experimental_psychology\assignment1","no","mono","no","18","no","#000000","no","yes","768","legacy","0","0","0","D:/UoM/course/semester2/experimental_psychology/assignment1/10977385.csv","legacy","Lentiform Loewenfeld","3.3.11","yes","0","j","j","space","NA","2257","2257","8112","NA","2","legacy","1024","2","48000","-16","experiment","Wilfred","0","even","NA","NA","NA","NA","NA","5896","NA","NA","NA","NA","NA","NA","NA","NA","NA","NA","2136","12600","NA","13600","NA","NA","10303","NA","NA","NA","10303","2138","10281","10251","NA","10281","10302","2138","New experiment","1","14124","3","yes","1024"
"NA","100","100","1092","1092","#ffffff","0","legacy","Old","legacy","legacy","0","uniform","j","1","1","undefined","NA","0","0","0","0","0","0","0","NA","0","NA","0","NA","0","NA","0","NA","0","1","0","1","NA","NA","1","NA","NA","0","1","5","0","0","0","0","1","0","Thu Mar 10 18:49:52 2022","The main experiment item","yes","","assignment1_final.osexp","D:\UoM\course\semester2\experimental_psychology\assignment1","no","mono","no","18","no","#000000","no","yes","768","legacy","1","1","0","D:/UoM/course/semester2/experimental_psychology/assignment1/10977385.csv","legacy","Lentiform Loewenfeld","3.3.11","yes","0","j","j","space","NA","1092","1092","8112","NA","2","legacy","1024","2","48000","-16","experiment","Wilfred","0","even","NA","NA","NA","NA","NA","5896","NA","NA","NA","NA","NA","NA","NA","NA","NA","NA","2136","14740","NA","15740","NA","NA","13640","NA","NA","NA","13640","2138","10281","10251","NA","10281","13638","2138","New experiment","1","1092","1","yes","1024"
"NA","100","100","2165","2165","#ffffff","0","legacy","Old","legacy","legacy","0","uniform","j","1","1","undefined","NA","0","0","0","0","0","0","0","NA","0","NA","0","NA","0","NA","0","NA","0","2","0","2","NA","NA","2","NA","NA","0","2","5","0","0","0","0","2","0","Thu Mar 10 18:49:52 2022","The main experiment item","yes","","assignment1_final.osexp","D:\UoM\course\semester2\experimental_psychology\assignment1","no","mono","no","18","no","#000000","no","yes","768","legacy","2","2","0","D:/UoM/course/semester2/experimental_psychology/assignment1/10977385.csv","legacy","Lentiform Loewenfeld","3.3.11","yes","0","j","j","space","NA","2165","2165","8112","NA","2","legacy","1024","2","48000","-16","experiment","Otto","0","even","NA","NA","NA","NA","NA","5896","NA","NA","NA","NA","NA","NA","NA","NA","NA","NA","2136","17968","NA","18968","NA","NA","15790","NA","NA","NA","15796","2138","10281","10251","NA","10281","15786","2138","New experiment","1","2165","1","yes","1024"
"NA","100","100","1095","1095","#ffffff","0","legacy","Old","legacy","legacy","0","uniform","j","1","1","undefined","NA","0","0","0","0","0","0","0","NA","0","NA","0","NA","0","NA","0","NA","0","3","0","3","NA","NA","3","NA","NA","0","3","5","0","0","0","0","3","0","Thu Mar 10 18:49:52 2022","The main experiment item","yes","","assignment1_final.osexp","D:\UoM\course\semester2\experimental_psychology\assignment1","no","mono","no","18","no","#000000","no","yes","768","legacy","3","3","0","D:/UoM/course/semester2/experimental_psychology/assignment1/10977385.csv","legacy","Lentiform Loewenfeld","3.3.11","yes","0","j","j","space","NA","1095","1095","8112","NA","2","legacy","1024","2","48000","-16","experiment","Albert","0","even","NA","NA","NA","NA","NA","5896","NA","NA","NA","NA","NA","NA","NA","NA","NA","NA","2136","20107","NA","21107","NA","NA","19005","NA","NA","NA","19005","2138","10281","10251","NA","10281","19003","2138","New experiment","1","1095","1","yes","1024"
"NA","100","100","975","975","#ffffff","0","legacy","Young","legacy","legacy","0","uniform","f","1","1","undefined","NA","0","0","0","0","0","0","0","NA","0","NA","0","NA","0","NA","0","NA","0","4","0","4","NA","NA","4","NA","NA","0","4","5","0","0","0","0","4","0","Thu Mar 10 18:49:52 2022","The main experiment item","yes","","assignment1_final.osexp","D:\UoM\course\semester2\experimental_psychology\assignment1","no","mono","no","18","no","#000000","no","yes","768","legacy","4","4","0","D:/UoM/course/semester2/experimental_psychology/assignment1/10977385.csv","legacy","Lentiform Loewenfeld","3.3.11","yes","0","f","f","space","NA","975","975","8112","NA","2","legacy","1024","2","48000","-16","experiment","Julie","0","even","NA","NA","NA","NA","NA","5896","NA","NA","NA","NA","NA","NA","NA","NA","NA","NA","2136","22136","NA","23136","NA","NA","21154","NA","NA","NA","21154","2138","10281","10251","NA","10281","21153","2138","New experiment","1","975","1","yes","1024"
"NA","100","100","918","918","#ffffff","0","legacy","Young","legacy","legacy","0","uniform","f","1","1","undefined","NA","0","0","0","0","0","0","0","NA","0","NA","0","NA","0","NA","0","NA","0","5","0","5","NA","NA","5","NA","NA","0","5","5","0","0","0","0","5","0","Thu Mar 10 18:49:52 2022","The main experiment item","yes","","assignment1_final.osexp","D:\UoM\course\semester2\experimental_psychology\assignment1","no","mono","no","18","no","#000000","no","yes","768","legacy","5","5","0","D:/UoM/course/semester2/experimental_psychology/assignment1/10977385.csv","legacy","Lentiform Loewenfeld","3.3.11","yes","0","f","f","space","NA","918","918","8112","NA","2","legacy","1024","2","48000","-16","experiment","Jimmy","0","even","NA","NA","NA","NA","NA","5896","NA","NA","NA","NA","NA","NA","NA","NA","NA","NA","2136","24109","NA","25109","NA","NA","23183","NA","NA","NA","23183","2138","10281","10251","NA","10281","23182","2138","New experiment","1","918","1","yes","1024"
"NA","100","100","731","731","#ffffff","0","legacy","Old","legacy","legacy","0","uniform","j","1","1","undefined","NA","0","0","0","0","0","0","0","NA","0","NA","0","NA","0","NA","0","NA","0","6","0","6","NA","NA","6","NA","NA","0","6","5","0","0","0","0","6","0","Thu Mar 10 18:49:52 2022","The main experiment item","yes","","assignment1_final.osexp","D:\UoM\course\semester2\experimental_psychology\assignment1","no","mono","no","18","no","#000000","no","yes","768","legacy","6","6","0","D:/UoM/course/semester2/experimental_psychology/assignment1/10977385.csv","legacy","Lentiform Loewenfeld","3.3.11","yes","0","j","j","space","NA","731","731","8112","NA","2","legacy","1024","2","48000","-16","experiment","Otto","0","even","NA","NA","NA","NA","NA","5896","NA","NA","NA","NA","NA","NA","NA","NA","NA","NA","2136","25893","NA","26893","NA","NA","25155","NA","NA","NA","25155","2138","10281","10251","NA","10281","25154","2138","New experiment","1","731","1","yes","1024"
"NA","100","100","835","835","#ffffff","0","legacy","Old","legacy","legacy","0","uniform","j","1","1","undefined","NA","0","0","0","0","0","0","0","NA","0","NA","0","NA","0","NA","0","NA","0","7","0","7","NA","NA","7","NA","NA","0","7","5","0","0","0","0","7","0","Thu Mar 10 18:49:52 2022","The main experiment item","yes","","assignment1_final.osexp","D:\UoM\course\semester2\experimental_psychology\assignment1","no","mono","no","18","no","#000000","no","yes","768","legacy","7","7","0","D:/UoM/course/semester2/experimental_psychology/assignment1/10977385.csv","legacy","Lentiform Loewenfeld","3.3.11","yes","0","j","j","space","NA","835","835","8112","NA","2","legacy","1024","2","48000","-16","experiment","Arthur","0","even","NA","NA","NA","NA","NA","5896","NA","NA","NA","NA","NA","NA","NA","NA","NA","NA","2136","27781","NA","28781","NA","NA","26939","NA","NA","NA","26939","2138","10281","10251","NA","10281","26937","2138","New experiment","1","835","1","yes","1024"
"NA","100","100","956","956","#ffffff","0","legacy","Young","legacy","legacy","0","uniform","f","1","1","undefined","NA","0","0","0","0","0","0","0","NA","0","NA","0","NA","0","NA","0","NA","0","8","0","8","NA","NA","8","NA","NA","0","8","5","0","0","0","0","8","0","Thu Mar 10 18:49:52 2022","The main experiment item","yes","","assignment1_final.osexp","D:\UoM\course\semester2\experimental_psychology\assignment1","no","mono","no","18","no","#000000","no","yes","768","legacy","8","8","0","D:/UoM/course/semester2/experimental_psychology/assignment1/10977385.csv","legacy","Lentiform Loewenfeld","3.3.11","yes","0","f","f","space","NA","956","956","8112","NA","2","legacy","1024","2","48000","-16","experiment","Hayley","0","even","NA","NA","NA","NA","NA","5896","NA","NA","NA","NA","NA","NA","NA","NA","NA","NA","2136","29791","NA","30791","NA","NA","28828","NA","NA","NA","28828","2138","10281","10251","NA","10281","28826","2138","New experiment","1","956","1","yes","1024"
"NA","100","100","528","528","#ffffff","0","legacy","Young","legacy","legacy","0","uniform","f","1","1","undefined","NA","0","0","0","0","0","0","0","NA","0","NA","0","NA","0","NA","0","NA","0","9","0","9","NA","NA","9","NA","NA","0","9","5","0","0","0","0","9","0","Thu Mar 10 18:49:52 2022","The main experiment item","yes","","assignment1_final.osexp","D:\UoM\course\semester2\experimental_psychology\assignment1","no","mono","no","18","no","#000000","no","yes","768","legacy","9","9","0","D:/UoM/course/semester2/experimental_psychology/assignment1/10977385.csv","legacy","Lentiform Loewenfeld","3.3.11","yes","0","f","f","space","NA","528","528","8112","NA","2","legacy","1024","2","48000","-16","experiment","Hayley","0","even","NA","NA","NA","NA","NA","5896","NA","NA","NA","NA","NA","NA","NA","NA","NA","NA","2136","31372","NA","32372","NA","NA","30836","NA","NA","NA","30837","2138","10281","10251","NA","10281","30835","2138","New experiment","1","528","1","yes","1024"
"NA","100","100","1119","1119","#ffffff","0","legacy","Young","legacy","legacy","0","uniform","f","1","1","undefined","NA","0","0","0","0","0","0","0","NA","0","NA","0","NA","0","NA","0","NA","0","10","0","10","NA","NA","10","NA","NA","0","10","5","0","0","0","0","10","0","Thu Mar 10 18:49:52 2022","The main experiment item","yes","","assignment1_final.osexp","D:\UoM\course\semester2\experimental_psychology\assignment1","no","mono","no","18","no","#000000","no","yes","768","legacy","10","10","0","D:/UoM/course/semester2/experimental_psychology/assignment1/10977385.csv","legacy","Lentiform Loewenfeld","3.3.11","yes","0","f","f","space","NA","1119","1119","8112","NA","2","legacy","1024","2","48000","-16","experiment","Julie","0","even","NA","NA","NA","NA","NA","5896","NA","NA","NA","NA","NA","NA","NA","NA","NA","NA","2136","33549","NA","34549","NA","NA","32418","NA","NA","NA","32418","2138","10281","10251","NA","10281","32417","2138","New experiment","1","1119","1","yes","1024"
"NA","0","0","1016","1016","#ffffff","0","legacy","Young","legacy","legacy","0","uniform","f","0","0","undefined","NA","0","0","0","0","0","0","0","NA","0","NA","0","NA","0","NA","0","NA","0","11","0","11","NA","NA","11","NA","NA","0","11","5","0","0","0","0","11","0","Thu Mar 10 18:49:52 2022","The main experiment item","yes","","assignment1_final.osexp","D:\UoM\course\semester2\experimental_psychology\assignment1","no","mono","no","18","no","#000000","no","yes","768","legacy","11","11","0","D:/UoM/course/semester2/experimental_psychology/assignment1/10977385.csv","legacy","Lentiform Loewenfeld","3.3.11","yes","0","j","j","space","NA","1016","1016","8112","NA","2","legacy","1024","2","48000","-16","experiment","Aiden","0","even","NA","NA","NA","NA","NA","5896","NA","NA","NA","NA","NA","NA","NA","NA","NA","NA","2136","35619","NA","36619","NA","NA","34594","NA","NA","NA","34594","2138","10281","10251","NA","10281","34593","2138","New experiment","0","1016","1","yes","1024"
"NA","100","100","525","525","#ffffff","0","legacy","Young","legacy","legacy","0","uniform","f","1","1","undefined","NA","0","0","0","0","0","0","0","NA","0","NA","0","NA","0","NA","0","NA","0","12","0","12","NA","NA","12","NA","NA","0","12","5","0","0","0","0","12","0","Thu Mar 10 18:49:52 2022","The main experiment item","yes","","assignment1_final.osexp","D:\UoM\course\semester2\experimental_psychology\assignment1","no","mono","no","18","no","#000000","no","yes","768","legacy","12","12","0","D:/UoM/course/semester2/experimental_psychology/assignment1/10977385.csv","legacy","Lentiform Loewenfeld","3.3.11","yes","0","f","f","space","NA","525","525","8112","NA","2","legacy","1024","2","48000","-16","experiment","Aiden","0","even","NA","NA","NA","NA","NA","5896","NA","NA","NA","NA","NA","NA","NA","NA","NA","NA","2136","37195","NA","38195","NA","NA","36664","NA","NA","NA","36664","2138","10281","10251","NA","10281","36663","2138","New experiment","1","525","1","yes","1024"
"NA","100","100","1244","1244","#ffffff","0","legacy","Young","legacy","legacy","0","uniform","f","1","1","undefined","NA","0","0","0","0","0","0","0","NA","0","NA","0","NA","0","NA","0","NA","0","13","0","13","NA","NA","13","NA","NA","0","13","5","0","0","0","0","13","0","Thu Mar 10 18:49:52 2022","The main experiment item","yes","","assignment1_final.osexp","D:\UoM\course\semester2\experimental_psychology\assignment1","no","mono","no","18","no","#000000","no","yes","768","legacy","13","13","0","D:/UoM/course/semester2/experimental_psychology/assignment1/10977385.csv","legacy","Lentiform Loewenfeld","3.3.11","yes","0","f","f","space","NA","1244","1244","8112","NA","2","legacy","1024","2","48000","-16","experiment","Jimmy","0","even","NA","NA","NA","NA","NA","5896","NA","NA","NA","NA","NA","NA","NA","NA","NA","NA","2136","39493","NA","40493","NA","NA","38241","NA","NA","NA","38241","2138","10281","10251","NA","10281","38240","2138","New experiment","1","1244","1","yes","1024"
"NA","100","100","777","777","#ffffff","0","legacy","Old","legacy","legacy","0","uniform","j","1","1","undefined","NA","0","0","0","0","0","0","0","NA","0","NA","0","NA","0","NA","0","NA","0","14","0","14","NA","NA","14","NA","NA","0","14","5","0","0","0","0","14","0","Thu Mar 10 18:49:52 2022","The main experiment item","yes","","assignment1_final.osexp","D:\UoM\course\semester2\experimental_psychology\assignment1","no","mono","no","18","no","#000000","no","yes","768","legacy","14","14","0","D:/UoM/course/semester2/experimental_psychology/assignment1/10977385.csv","legacy","Lentiform Loewenfeld","3.3.11","yes","0","j","j","space","NA","777","777","8112","NA","2","legacy","1024","2","48000","-16","experiment","Albert","0","even","NA","NA","NA","NA","NA","5896","NA","NA","NA","NA","NA","NA","NA","NA","NA","NA","2136","41323","NA","42323","NA","NA","40539","NA","NA","NA","40539","2138","10281","10251","NA","10281","40537","2138","New experiment","1","777","1","yes","1024"
"NA","100","100","776","776","#ffffff","0","legacy","Old","legacy","legacy","0","uniform","j","1","1","undefined","NA","0","0","0","0","0","0","0","NA","0","NA","0","NA","0","NA","0","NA","0","15","0","15","NA","NA","15","NA","NA","0","15","5","0","0","0","0","15","0","Thu Mar 10 18:49:52 2022","The main experiment item","yes","","assignment1_final.osexp","D:\UoM\course\semester2\experimental_psychology\assignment1","no","mono","no","18","no","#000000","no","yes","768","legacy","15","15","0","D:/UoM/course/semester2/experimental_psychology/assignment1/10977385.csv","legacy","Lentiform Loewenfeld","3.3.11","yes","0","j","j","space","NA","776","776","8112","NA","2","legacy","1024","2","48000","-16","experiment","Arthur","0","even","NA","NA","NA","NA","NA","5896","NA","NA","NA","NA","NA","NA","NA","NA","NA","NA","2136","43151","NA","44151","NA","NA","42367","NA","NA","NA","42368","2138","10281","10251","NA","10281","42366","2138","New experiment","1","776","1","yes","1024"
"NA","0","0","2451.5","2451.5","#ffffff","1","legacy","Young","legacy","legacy","0","uniform","f","0","0","undefined","undefined","0","0","0","0","0","0","0","0","0","NA","0","NA","0","NA","0","NA","0","16","0","16","NA","NA","16","NA","NA","0","16","5","0","0","0","0","15","0","Thu Mar 10 18:49:52 2022","The main experiment item","yes","","assignment1_final.osexp","D:\UoM\course\semester2\experimental_psychology\assignment1","no","mono","no","18","no","#000000","no","yes","768","legacy","0","15","0","D:/UoM/course/semester2/experimental_psychology/assignment1/10977385.csv","legacy","Lentiform Loewenfeld","3.3.11","yes","0","j","j","space","space","1399","1399","8112","3504","2","legacy","1024","2","48000","-16","experiment","Chad","0","even","44182","NA","NA","NA","NA","5896","47707","47722","NA","NA","NA","NA","NA","NA","NA","NA","2136","49129","NA","50129","NA","NA","47723","NA","NA","NA","47723","2138","10281","10251","44183","10281","42366","2138","New experiment","0","4903","2","yes","1024"
"NA","0","0","1065","1065","#ffffff","1","legacy","Old","legacy","legacy","0","uniform","j","0","0","undefined","undefined","0","0","0","0","0","0","0","1","0","NA","0","NA","0","NA","0","NA","0","17","0","17","NA","NA","17","NA","NA","0","17","5","0","0","0","0","15","0","Thu Mar 10 18:49:52 2022","The main experiment item","yes","","assignment1_final.osexp","D:\UoM\course\semester2\experimental_psychology\assignment1","no","mono","no","18","no","#000000","no","yes","768","legacy","1","15","0","D:/UoM/course/semester2/experimental_psychology/assignment1/10977385.csv","legacy","Lentiform Loewenfeld","3.3.11","yes","0","f","f","space","space","1065","1065","8112","3504","2","legacy","1024","2","48000","-16","experiment","Edgar","0","even","44182","NA","NA","NA","NA","5896","47707","50163","NA","NA","NA","NA","NA","NA","NA","NA","2136","51236","NA","52236","NA","NA","50164","NA","NA","NA","50164","2138","10281","10251","44183","10281","42366","2138","New experiment","0","1065","1","yes","1024"
"NA","100","100","710","710","#ffffff","1","legacy","Old","legacy","legacy","0","uniform","j","1","1","undefined","undefined","0","0","0","0","0","0","0","2","0","NA","0","NA","0","NA","0","NA","0","18","0","18","NA","NA","18","NA","NA","0","18","5","0","0","0","0","15","0","Thu Mar 10 18:49:52 2022","The main experiment item","yes","","assignment1_final.osexp","D:\UoM\course\semester2\experimental_psychology\assignment1","no","mono","no","18","no","#000000","no","yes","768","legacy","2","15","0","D:/UoM/course/semester2/experimental_psychology/assignment1/10977385.csv","legacy","Lentiform Loewenfeld","3.3.11","yes","0","j","j","space","space","710","710","8112","3504","2","legacy","1024","2","48000","-16","experiment","Edgar","0","even","44182","NA","NA","NA","NA","5896","47707","52280","NA","NA","NA","NA","NA","NA","NA","NA","2136","52997","NA","53997","NA","NA","52281","NA","NA","NA","52281","2138","10281","10251","44183","10281","42366","2138","New experiment","1","710","1","yes","1024"
"NA","100","100","730","730","#ffffff","1","legacy","Young","legacy","legacy","0","uniform","f","1","1","undefined","undefined","0","0","0","0","0","0","0","3","0","NA","0","NA","0","NA","0","NA","0","19","0","19","NA","NA","19","NA","NA","0","19","5","0","0","0","0","15","0","Thu Mar 10 18:49:52 2022","The main experiment item","yes","","assignment1_final.osexp","D:\UoM\course\semester2\experimental_psychology\assignment1","no","mono","no","18","no","#000000","no","yes","768","legacy","3","15","0","D:/UoM/course/semester2/experimental_psychology/assignment1/10977385.csv","legacy","Lentiform Loewenfeld","3.3.11","yes","0","f","f","space","space","730","730","8112","3504","2","legacy","1024","2","48000","-16","experiment","Joey","0","even","44182","NA","NA","NA","NA","5896","47707","54042","NA","NA","NA","NA","NA","NA","NA","NA","2136","54780","NA","55780","NA","NA","54043","NA","NA","NA","54043","2138","10281","10251","44183","10281","42366","2138","New experiment","1","730","1","yes","1024"
"NA","100","100","749","749","#ffffff","1","legacy","Young","legacy","legacy","0","uniform","f","1","1","undefined","undefined","0","0","0","0","0","0","0","4","0","NA","0","NA","0","NA","0","NA","0","20","0","20","NA","NA","20","NA","NA","0","20","5","0","0","0","0","15","0","Thu Mar 10 18:49:52 2022","The main experiment item","yes","","assignment1_final.osexp","D:\UoM\course\semester2\experimental_psychology\assignment1","no","mono","no","18","no","#000000","no","yes","768","legacy","4","15","0","D:/UoM/course/semester2/experimental_psychology/assignment1/10977385.csv","legacy","Lentiform Loewenfeld","3.3.11","yes","0","f","f","space","space","749","749","8112","3504","2","legacy","1024","2","48000","-16","experiment","Mike","0","even","44182","NA","NA","NA","NA","5896","47707","55815","NA","NA","NA","NA","NA","NA","NA","NA","2136","56573","NA","57573","NA","NA","55817","NA","NA","NA","55817","2138","10281","10251","44183","10281","42366","2138","New experiment","1","749","1","yes","1024"
"NA","100","100","493","493","#ffffff","1","legacy","Young","legacy","legacy","0","uniform","f","1","1","undefined","undefined","0","0","0","0","0","0","0","5","0","NA","0","NA","0","NA","0","NA","0","21","0","21","NA","NA","21","NA","NA","0","21","5","0","0","0","0","15","0","Thu Mar 10 18:49:52 2022","The main experiment item","yes","","assignment1_final.osexp","D:\UoM\course\semester2\experimental_psychology\assignment1","no","mono","no","18","no","#000000","no","yes","768","legacy","5","15","0","D:/UoM/course/semester2/experimental_psychology/assignment1/10977385.csv","legacy","Lentiform Loewenfeld","3.3.11","yes","0","f","f","space","space","493","493","8112","3504","2","legacy","1024","2","48000","-16","experiment","Mike","0","even","44182","NA","NA","NA","NA","5896","47707","57617","NA","NA","NA","NA","NA","NA","NA","NA","2136","58118","NA","59118","NA","NA","57618","NA","NA","NA","57618","2138","10281","10251","44183","10281","42366","2138","New experiment","1","493","1","yes","1024"
"NA","100","100","825","825","#ffffff","1","legacy","Young","legacy","legacy","0","uniform","f","1","1","undefined","undefined","0","0","0","0","0","0","0","6","0","NA","0","NA","0","NA","0","NA","0","22","0","22","NA","NA","22","NA","NA","0","22","5","0","0","0","0","15","0","Thu Mar 10 18:49:52 2022","The main experiment item","yes","","assignment1_final.osexp","D:\UoM\course\semester2\experimental_psychology\assignment1","no","mono","no","18","no","#000000","no","yes","768","legacy","6","15","0","D:/UoM/course/semester2/experimental_psychology/assignment1/10977385.csv","legacy","Lentiform Loewenfeld","3.3.11","yes","0","f","f","space","space","825","825","8112","3504","2","legacy","1024","2","48000","-16","experiment","Erik","0","even","44182","NA","NA","NA","NA","5896","47707","59164","NA","NA","NA","NA","NA","NA","NA","NA","2136","59997","NA","60997","NA","NA","59165","NA","NA","NA","59165","2138","10281","10251","44183","10281","42366","2138","New experiment","1","825","1","yes","1024"
"NA","100","100","433","433","#ffffff","1","legacy","Young","legacy","legacy","0","uniform","f","1","1","undefined","undefined","0","0","0","0","0","0","0","7","0","NA","0","NA","0","NA","0","NA","0","23","0","23","NA","NA","23","NA","NA","0","23","5","0","0","0","0","15","0","Thu Mar 10 18:49:52 2022","The main experiment item","yes","","assignment1_final.osexp","D:\UoM\course\semester2\experimental_psychology\assignment1","no","mono","no","18","no","#000000","no","yes","768","legacy","7","15","0","D:/UoM/course/semester2/experimental_psychology/assignment1/10977385.csv","legacy","Lentiform Loewenfeld","3.3.11","yes","0","f","f","space","space","433","433","8112","3504","2","legacy","1024","2","48000","-16","experiment","Erik","0","even","44182","NA","NA","NA","NA","5896","47707","61041","NA","NA","NA","NA","NA","NA","NA","NA","2136","61482","NA","62482","NA","NA","61042","NA","NA","NA","61042","2138","10281","10251","44183","10281","42366","2138","New experiment","1","433","1","yes","1024"
"NA","100","100","420","420","#ffffff","1","legacy","Young","legacy","legacy","0","uniform","f","1","1","undefined","undefined","0","0","0","0","0","0","0","8","0","NA","0","NA","0","NA","0","NA","0","24","0","24","NA","NA","24","NA","NA","0","24","5","0","0","0","0","15","0","Thu Mar 10 18:49:52 2022","The main experiment item","yes","","assignment1_final.osexp","D:\UoM\course\semester2\experimental_psychology\assignment1","no","mono","no","18","no","#000000","no","yes","768","legacy","8","15","0","D:/UoM/course/semester2/experimental_psychology/assignment1/10977385.csv","legacy","Lentiform Loewenfeld","3.3.11","yes","0","f","f","space","space","420","420","8112","3504","2","legacy","1024","2","48000","-16","experiment","Erik","0","even","44182","NA","NA","NA","NA","5896","47707","62526","NA","NA","NA","NA","NA","NA","NA","NA","2136","62955","NA","63955","NA","NA","62527","NA","NA","NA","62527","2138","10281","10251","44183","10281","42366","2138","New experiment","1","420","1","yes","1024"
"NA","100","100","734","734","#ffffff","1","legacy","Old","legacy","legacy","0","uniform","j","1","1","undefined","undefined","0","0","0","0","0","0","0","9","0","NA","0","NA","0","NA","0","NA","0","25","0","25","NA","NA","25","NA","NA","0","25","5","0","0","0","0","15","0","Thu Mar 10 18:49:52 2022","The main experiment item","yes","","assignment1_final.osexp","D:\UoM\course\semester2\experimental_psychology\assignment1","no","mono","no","18","no","#000000","no","yes","768","legacy","9","15","0","D:/UoM/course/semester2/experimental_psychology/assignment1/10977385.csv","legacy","Lentiform Loewenfeld","3.3.11","yes","0","j","j","space","space","734","734","8112","3504","2","legacy","1024","2","48000","-16","experiment","Donald","0","even","44182","NA","NA","NA","NA","5896","47707","63990","NA","NA","NA","NA","NA","NA","NA","NA","2136","64732","NA","65732","NA","NA","63991","NA","NA","NA","63991","2138","10281","10251","44183","10281","42366","2138","New experiment","1","734","1","yes","1024"
"NA","100","100","862","862","#ffffff","1","legacy","Old","legacy","legacy","0","uniform","j","1","1","undefined","undefined","0","0","0","0","0","0","0","10","0","NA","0","NA","0","NA","0","NA","0","26","0","26","NA","NA","26","NA","NA","0","26","5","0","0","0","0","15","0","Thu Mar 10 18:49:52 2022","The main experiment item","yes","","assignment1_final.osexp","D:\UoM\course\semester2\experimental_psychology\assignment1","no","mono","no","18","no","#000000","no","yes","768","legacy","10","15","0","D:/UoM/course/semester2/experimental_psychology/assignment1/10977385.csv","legacy","Lentiform Loewenfeld","3.3.11","yes","0","j","j","space","space","862","862","8112","3504","2","legacy","1024","2","48000","-16","experiment","Mortimer","0","even","44182","NA","NA","NA","NA","5896","47707","65776","NA","NA","NA","NA","NA","NA","NA","NA","2136","66647","NA","67647","NA","NA","65778","NA","NA","NA","65778","2138","10281","10251","44183","10281","42366","2138","New experiment","1","862","1","yes","1024"
"NA","100","100","783","783","#ffffff","1","legacy","Old","legacy","legacy","0","uniform","j","1","1","undefined","undefined","0","0","0","0","0","0","0","11","0","NA","0","NA","0","NA","0","NA","0","27","0","27","NA","NA","27","NA","NA","0","27","5","0","0","0","0","15","0","Thu Mar 10 18:49:52 2022","The main experiment item","yes","","assignment1_final.osexp","D:\UoM\course\semester2\experimental_psychology\assignment1","no","mono","no","18","no","#000000","no","yes","768","legacy","11","15","0","D:/UoM/course/semester2/experimental_psychology/assignment1/10977385.csv","legacy","Lentiform Loewenfeld","3.3.11","yes","0","j","j","space","space","783","783","8112","3504","2","legacy","1024","2","48000","-16","experiment","Donald","0","even","44182","NA","NA","NA","NA","5896","47707","67692","NA","NA","NA","NA","NA","NA","NA","NA","2136","68483","NA","69483","NA","NA","67693","NA","NA","NA","67693","2138","10281","10251","44183","10281","42366","2138","New experiment","1","783","1","yes","1024"
"NA","100","100","1014","1014","#ffffff","1","legacy","Old","legacy","legacy","0","uniform","j","1","1","undefined","undefined","0","0","0","0","0","0","0","12","0","NA","0","NA","0","NA","0","NA","0","28","0","28","NA","NA","28","NA","NA","0","28","5","0","0","0","0","15","0","Thu Mar 10 18:49:52 2022","The main experiment item","yes","","assignment1_final.osexp","D:\UoM\course\semester2\experimental_psychology\assignment1","no","mono","no","18","no","#000000","no","yes","768","legacy","12","15","0","D:/UoM/course/semester2/experimental_psychology/assignment1/10977385.csv","legacy","Lentiform Loewenfeld","3.3.11","yes","0","j","j","space","space","1014","1014","8112","3504","2","legacy","1024","2","48000","-16","experiment","Cecil","0","even","44182","NA","NA","NA","NA","5896","47707","69520","NA","NA","NA","NA","NA","NA","NA","NA","2136","70543","NA","71543","NA","NA","69521","NA","NA","NA","69521","2138","10281","10251","44183","10281","42366","2138","New experiment","1","1014","1","yes","1024"
"NA","100","100","626","626","#ffffff","1","legacy","Young","legacy","legacy","0","uniform","f","1","1","undefined","undefined","0","0","0","0","0","0","0","13","0","NA","0","NA","0","NA","0","NA","0","29","0","29","NA","NA","29","NA","NA","0","29","5","0","0","0","0","15","0","Thu Mar 10 18:49:52 2022","The main experiment item","yes","","assignment1_final.osexp","D:\UoM\course\semester2\experimental_psychology\assignment1","no","mono","no","18","no","#000000","no","yes","768","legacy","13","15","0","D:/UoM/course/semester2/experimental_psychology/assignment1/10977385.csv","legacy","Lentiform Loewenfeld","3.3.11","yes","0","f","f","space","space","626","626","8112","3504","2","legacy","1024","2","48000","-16","experiment","Billy","0","even","44182","NA","NA","NA","NA","5896","47707","71590","NA","NA","NA","NA","NA","NA","NA","NA","2136","72224","NA","73224","NA","NA","71591","NA","NA","NA","71591","2138","10281","10251","44183","10281","42366","2138","New experiment","1","626","1","yes","1024"
"NA","100","100","668","668","#ffffff","1","legacy","Young","legacy","legacy","0","uniform","f","1","1","undefined","undefined","0","0","0","0","0","0","0","14","0","NA","0","NA","0","NA","0","NA","0","30","0","30","NA","NA","30","NA","NA","0","30","5","0","0","0","0","15","0","Thu Mar 10 18:49:52 2022","The main experiment item","yes","","assignment1_final.osexp","D:\UoM\course\semester2\experimental_psychology\assignment1","no","mono","no","18","no","#000000","no","yes","768","legacy","14","15","0","D:/UoM/course/semester2/experimental_psychology/assignment1/10977385.csv","legacy","Lentiform Loewenfeld","3.3.11","yes","0","f","f","space","space","668","668","8112","3504","2","legacy","1024","2","48000","-16","experiment","Joey","0","even","44182","NA","NA","NA","NA","5896","47707","73269","NA","NA","NA","NA","NA","NA","NA","NA","2136","73945","NA","74945","NA","NA","73270","NA","NA","NA","73270","2138","10281","10251","44183","10281","42366","2138","New experiment","1","668","1","yes","1024"
"NA","100","100","858","858","#ffffff","1","legacy","Young","legacy","legacy","0","uniform","f","1","1","undefined","undefined","0","0","0","0","0","0","0","15","0","NA","0","NA","0","NA","0","NA","0","31","0","31","NA","NA","31","NA","NA","0","31","5","0","0","0","0","15","0","Thu Mar 10 18:49:52 2022","The main experiment item","yes","","assignment1_final.osexp","D:\UoM\course\semester2\experimental_psychology\assignment1","no","mono","no","18","no","#000000","no","yes","768","legacy","15","15","0","D:/UoM/course/semester2/experimental_psychology/assignment1/10977385.csv","legacy","Lentiform Loewenfeld","3.3.11","yes","0","f","f","space","space","858","858","8112","3504","2","legacy","1024","2","48000","-16","experiment","Chad","0","even","44182","NA","NA","NA","NA","5896","47707","74989","NA","NA","NA","NA","NA","NA","NA","NA","2136","75855","NA","76855","NA","NA","74990","NA","NA","NA","74990","2138","10281","10251","44183","10281","42366","2138","New experiment","1","858","1","yes","1024"
"NA","100","100","677","677","#ffffff","1","legacy","Old","legacy","legacy","0","uniform","j","1","1","undefined","undefined","0","0","0","0","0","0","0","16","0","NA","0","NA","0","NA","0","NA","0","32","0","32","NA","NA","32","NA","NA","0","32","5","0","0","0","0","15","0","Thu Mar 10 18:49:52 2022","The main experiment item","yes","","assignment1_final.osexp","D:\UoM\course\semester2\experimental_psychology\assignment1","no","mono","no","18","no","#000000","no","yes","768","legacy","16","15","0","D:/UoM/course/semester2/experimental_psychology/assignment1/10977385.csv","legacy","Lentiform Loewenfeld","3.3.11","yes","0","j","j","space","space","677","677","8112","3504","2","legacy","1024","2","48000","-16","experiment","Walter","0","even","44182","NA","NA","NA","NA","5896","47707","76899","NA","NA","NA","NA","NA","NA","NA","NA","2136","77585","NA","78585","NA","NA","76900","NA","NA","NA","76900","2138","10281","10251","44183","10281","42366","2138","New experiment","1","677","1","yes","1024"
"NA","100","100","1447","1447","#ffffff","1","legacy","Old","legacy","legacy","0","uniform","j","1","1","undefined","undefined","0","0","0","0","0","0","0","17","0","NA","0","NA","0","NA","0","NA","0","33","0","33","NA","NA","33","NA","NA","0","33","5","0","0","0","0","15","0","Thu Mar 10 18:49:52 2022","The main experiment item","yes","","assignment1_final.osexp","D:\UoM\course\semester2\experimental_psychology\assignment1","no","mono","no","18","no","#000000","no","yes","768","legacy","17","15","0","D:/UoM/course/semester2/experimental_psychology/assignment1/10977385.csv","legacy","Lentiform Loewenfeld","3.3.11","yes","0","j","j","space","space","1447","1447","8112","3504","2","legacy","1024","2","48000","-16","experiment","Cecil","0","even","44182","NA","NA","NA","NA","5896","47707","78629","NA","NA","NA","NA","NA","NA","NA","NA","2136","80084","NA","81084","NA","NA","78630","NA","NA","NA","78630","2138","10281","10251","44183","10281","42366","2138","New experiment","1","1447","1","yes","1024"
"NA","100","100","655","655","#ffffff","1","legacy","Old","legacy","legacy","0","uniform","j","1","1","undefined","undefined","0","0","0","0","0","0","0","18","0","NA","0","NA","0","NA","0","NA","0","34","0","34","NA","NA","34","NA","NA","0","34","5","0","0","0","0","15","0","Thu Mar 10 18:49:52 2022","The main experiment item","yes","","assignment1_final.osexp","D:\UoM\course\semester2\experimental_psychology\assignment1","no","mono","no","18","no","#000000","no","yes","768","legacy","18","15","0","D:/UoM/course/semester2/experimental_psychology/assignment1/10977385.csv","legacy","Lentiform Loewenfeld","3.3.11","yes","0","j","j","space","space","655","655","8112","3504","2","legacy","1024","2","48000","-16","experiment","Mortimer","0","even","44182","NA","NA","NA","NA","5896","47707","81128","NA","NA","NA","NA","NA","NA","NA","NA","2136","81791","NA","82791","NA","NA","81129","NA","NA","NA","81129","2138","10281","10251","44183","10281","42366","2138","New experiment","1","655","1","yes","1024"
"NA","100","100","677","677","#ffffff","1","legacy","Old","legacy","legacy","0","uniform","j","1","1","undefined","undefined","0","0","0","0","0","0","0","19","0","NA","0","NA","0","NA","0","NA","0","35","0","35","NA","NA","35","NA","NA","0","35","5","0","0","0","0","15","0","Thu Mar 10 18:49:52 2022","The main experiment item","yes","","assignment1_final.osexp","D:\UoM\course\semester2\experimental_psychology\assignment1","no","mono","no","18","no","#000000","no","yes","768","legacy","19","15","0","D:/UoM/course/semester2/experimental_psychology/assignment1/10977385.csv","legacy","Lentiform Loewenfeld","3.3.11","yes","0","j","j","space","space","677","677","8112","3504","2","legacy","1024","2","48000","-16","experiment","Wilber","0","even","44182","NA","NA","NA","NA","5896","47707","82836","NA","NA","NA","NA","NA","NA","NA","NA","2136","83521","NA","84521","NA","NA","82837","NA","NA","NA","82837","2138","10281","10251","44183","10281","42366","2138","New experiment","1","677","1","yes","1024"
"NA","100","100","498","498","#ffffff","1","legacy","Old","legacy","legacy","0","uniform","j","1","1","undefined","undefined","0","0","0","0","0","0","0","20","0","NA","0","NA","0","NA","0","NA","0","36","0","36","NA","NA","36","NA","NA","0","36","5","0","0","0","0","15","0","Thu Mar 10 18:49:52 2022","The main experiment item","yes","","assignment1_final.osexp","D:\UoM\course\semester2\experimental_psychology\assignment1","no","mono","no","18","no","#000000","no","yes","768","legacy","20","15","0","D:/UoM/course/semester2/experimental_psychology/assignment1/10977385.csv","legacy","Lentiform Loewenfeld","3.3.11","yes","0","j","j","space","space","498","498","8112","3504","2","legacy","1024","2","48000","-16","experiment","Wilber","0","even","44182","NA","NA","NA","NA","5896","47707","84567","NA","NA","NA","NA","NA","NA","NA","NA","2136","85073","NA","86073","NA","NA","84568","NA","NA","NA","84568","2138","10281","10251","44183","10281","42366","2138","New experiment","1","498","1","yes","1024"
"NA","100","100","432","432","#ffffff","1","legacy","Old","legacy","legacy","0","uniform","j","1","1","undefined","undefined","0","0","0","0","0","0","0","21","0","NA","0","NA","0","NA","0","NA","0","37","0","37","NA","NA","37","NA","NA","0","37","5","0","0","0","0","15","0","Thu Mar 10 18:49:52 2022","The main experiment item","yes","","assignment1_final.osexp","D:\UoM\course\semester2\experimental_psychology\assignment1","no","mono","no","18","no","#000000","no","yes","768","legacy","21","15","0","D:/UoM/course/semester2/experimental_psychology/assignment1/10977385.csv","legacy","Lentiform Loewenfeld","3.3.11","yes","0","j","j","space","space","432","432","8112","3504","2","legacy","1024","2","48000","-16","experiment","Wilber","0","even","44182","NA","NA","NA","NA","5896","47707","86117","NA","NA","NA","NA","NA","NA","NA","NA","2136","86558","NA","87558","NA","NA","86119","NA","NA","NA","86119","2138","10281","10251","44183","10281","42366","2138","New experiment","1","432","1","yes","1024"
"NA","100","100","1338","1338","#ffffff","1","legacy","Young","legacy","legacy","0","uniform","f","1","1","undefined","undefined","0","0","0","0","0","0","0","22","0","NA","0","NA","0","NA","0","NA","0","38","0","38","NA","NA","38","NA","NA","0","38","5","0","0","0","0","15","0","Thu Mar 10 18:49:52 2022","The main experiment item","yes","","assignment1_final.osexp","D:\UoM\course\semester2\experimental_psychology\assignment1","no","mono","no","18","no","#000000","no","yes","768","legacy","22","15","0","D:/UoM/course/semester2/experimental_psychology/assignment1/10977385.csv","legacy","Lentiform Loewenfeld","3.3.11","yes","0","f","f","space","space","1338","1338","8112","3504","2","legacy","1024","2","48000","-16","experiment","Chad","0","even","44182","NA","NA","NA","NA","5896","47707","87602","NA","NA","NA","NA","NA","NA","NA","NA","2136","88948","NA","89948","NA","NA","87603","NA","NA","NA","87603","2138","10281","10251","44183","10281","42366","2138","New experiment","1","1338","1","yes","1024"
"NA","100","100","601","601","#ffffff","1","legacy","Young","legacy","legacy","0","uniform","f","1","1","undefined","undefined","0","0","0","0","0","0","0","23","0","NA","0","NA","0","NA","0","NA","0","39","0","39","NA","NA","39","NA","NA","0","39","5","0","0","0","0","15","0","Thu Mar 10 18:49:52 2022","The main experiment item","yes","","assignment1_final.osexp","D:\UoM\course\semester2\experimental_psychology\assignment1","no","mono","no","18","no","#000000","no","yes","768","legacy","23","15","0","D:/UoM/course/semester2/experimental_psychology/assignment1/10977385.csv","legacy","Lentiform Loewenfeld","3.3.11","yes","0","f","f","space","space","601","601","8112","3504","2","legacy","1024","2","48000","-16","experiment","Mike","0","even","44182","NA","NA","NA","NA","5896","47707","89993","NA","NA","NA","NA","NA","NA","NA","NA","2136","90602","NA","91602","NA","NA","89994","NA","NA","NA","89994","2138","10281","10251","44183","10281","42366","2138","New experiment","1","601","1","yes","1024"
"NA","100","100","1272","1272","#ffffff","1","legacy","Young","legacy","legacy","0","uniform","f","1","1","undefined","undefined","0","0","0","0","0","0","0","24","0","NA","0","NA","0","NA","0","NA","0","40","0","40","NA","NA","40","NA","NA","0","40","5","0","0","0","0","15","0","Thu Mar 10 18:49:52 2022","The main experiment item","yes","","assignment1_final.osexp","D:\UoM\course\semester2\experimental_psychology\assignment1","no","mono","no","18","no","#000000","no","yes","768","legacy","24","15","0","D:/UoM/course/semester2/experimental_psychology/assignment1/10977385.csv","legacy","Lentiform Loewenfeld","3.3.11","yes","0","f","f","space","space","1272","1272","8112","3504","2","legacy","1024","2","48000","-16","experiment","Brad","0","even","44182","NA","NA","NA","NA","5896","47707","91649","NA","NA","NA","NA","NA","NA","NA","NA","2136","92929","NA","93929","NA","NA","91650","NA","NA","NA","91650","2138","10281","10251","44183","10281","42366","2138","New experiment","1","1272","1","yes","1024"
"NA","100","100","659","659","#ffffff","1","legacy","Young","legacy","legacy","0","uniform","f","1","1","undefined","undefined","0","0","0","0","0","0","0","25","0","NA","0","NA","0","NA","0","NA","0","41","0","41","NA","NA","41","NA","NA","0","41","5","0","0","0","0","15","0","Thu Mar 10 18:49:52 2022","The main experiment item","yes","","assignment1_final.osexp","D:\UoM\course\semester2\experimental_psychology\assignment1","no","mono","no","18","no","#000000","no","yes","768","legacy","25","15","0","D:/UoM/course/semester2/experimental_psychology/assignment1/10977385.csv","legacy","Lentiform Loewenfeld","3.3.11","yes","0","f","f","space","space","659","659","8112","3504","2","legacy","1024","2","48000","-16","experiment","Billy","0","even","44182","NA","NA","NA","NA","5896","47707","93973","NA","NA","NA","NA","NA","NA","NA","NA","2136","94641","NA","95641","NA","NA","93975","NA","NA","NA","93975","2138","10281","10251","44183","10281","42366","2138","New experiment","1","659","1","yes","1024"
"NA","100","100","850","850","#ffffff","1","legacy","Old","legacy","legacy","0","uniform","j","1","1","undefined","undefined","0","0","0","0","0","0","0","26","0","NA","0","NA","0","NA","0","NA","0","42","0","42","NA","NA","42","NA","NA","0","42","5","0","0","0","0","15","0","Thu Mar 10 18:49:52 2022","The main experiment item","yes","","assignment1_final.osexp","D:\UoM\course\semester2\experimental_psychology\assignment1","no","mono","no","18","no","#000000","no","yes","768","legacy","26","15","0","D:/UoM/course/semester2/experimental_psychology/assignment1/10977385.csv","legacy","Lentiform Loewenfeld","3.3.11","yes","0","j","j","space","space","850","850","8112","3504","2","legacy","1024","2","48000","-16","experiment","Cecil","0","even","44182","NA","NA","NA","NA","5896","47707","95684","NA","NA","NA","NA","NA","NA","NA","NA","2136","96542","NA","97542","NA","NA","95685","NA","NA","NA","95685","2138","10281","10251","44183","10281","42366","2138","New experiment","1","850","1","yes","1024"
"NA","100","100","632","632","#ffffff","1","legacy","Young","legacy","legacy","0","uniform","f","1","1","undefined","undefined","0","0","0","0","0","0","0","27","0","NA","0","NA","0","NA","0","NA","0","43","0","43","NA","NA","43","NA","NA","0","43","5","0","0","0","0","15","0","Thu Mar 10 18:49:52 2022","The main experiment item","yes","","assignment1_final.osexp","D:\UoM\course\semester2\experimental_psychology\assignment1","no","mono","no","18","no","#000000","no","yes","768","legacy","27","15","0","D:/UoM/course/semester2/experimental_psychology/assignment1/10977385.csv","legacy","Lentiform Loewenfeld","3.3.11","yes","0","f","f","space","space","632","632","8112","3504","2","legacy","1024","2","48000","-16","experiment","Billy","0","even","44182","NA","NA","NA","NA","5896","47707","97586","NA","NA","NA","NA","NA","NA","NA","NA","2136","98227","NA","99227","NA","NA","97587","NA","NA","NA","97587","2138","10281","10251","44183","10281","42366","2138","New experiment","1","632","1","yes","1024"
"NA","100","100","819","819","#ffffff","1","legacy","Young","legacy","legacy","0","uniform","f","1","1","undefined","undefined","0","0","0","0","0","0","0","28","0","NA","0","NA","0","NA","0","NA","0","44","0","44","NA","NA","44","NA","NA","0","44","5","0","0","0","0","15","0","Thu Mar 10 18:49:52 2022","The main experiment item","yes","","assignment1_final.osexp","D:\UoM\course\semester2\experimental_psychology\assignment1","no","mono","no","18","no","#000000","no","yes","768","legacy","28","15","0","D:/UoM/course/semester2/experimental_psychology/assignment1/10977385.csv","legacy","Lentiform Loewenfeld","3.3.11","yes","0","f","f","space","space","819","819","8112","3504","2","legacy","1024","2","48000","-16","experiment","Brad","0","even","44182","NA","NA","NA","NA","5896","47707","99272","NA","NA","NA","NA","NA","NA","NA","NA","2136","100101","NA","101101","NA","NA","99274","NA","NA","NA","99274","2138","10281","10251","44183","10281","42366","2138","New experiment","1","819","1","yes","1024"
"NA","100","100","582","582","#ffffff","1","legacy","Old","legacy","legacy","0","uniform","j","1","1","undefined","undefined","0","0","0","0","0","0","0","29","0","NA","0","NA","0","NA","0","NA","0","45","0","45","NA","NA","45","NA","NA","0","45","5","0","0","0","0","15","0","Thu Mar 10 18:49:52 2022","The main experiment item","yes","","assignment1_final.osexp","D:\UoM\course\semester2\experimental_psychology\assignment1","no","mono","no","18","no","#000000","no","yes","768","legacy","29","15","0","D:/UoM/course/semester2/experimental_psychology/assignment1/10977385.csv","legacy","Lentiform Loewenfeld","3.3.11","yes","0","j","j","space","space","582","582","8112","3504","2","legacy","1024","2","48000","-16","experiment","Walter","0","even","44182","NA","NA","NA","NA","5896","47707","101142","NA","NA","NA","NA","NA","NA","NA","NA","2136","101731","NA","102732","NA","NA","101143","NA","NA","NA","101143","2138","10281","10251","44183","10281","42366","2138","New experiment","1","582","1","yes","1024"
"NA","100","100","604","604","#ffffff","1","legacy","Old","legacy","legacy","0","uniform","j","1","1","undefined","undefined","0","0","0","0","0","0","0","30","0","NA","0","NA","0","NA","0","NA","0","46","0","46","NA","NA","46","NA","NA","0","46","5","0","0","0","0","15","0","Thu Mar 10 18:49:52 2022","The main experiment item","yes","","assignment1_final.osexp","D:\UoM\course\semester2\experimental_psychology\assignment1","no","mono","no","18","no","#000000","no","yes","768","legacy","30","15","0","D:/UoM/course/semester2/experimental_psychology/assignment1/10977385.csv","legacy","Lentiform Loewenfeld","3.3.11","yes","0","j","j","space","space","604","604","8112","3504","2","legacy","1024","2","48000","-16","experiment","Mortimer","0","even","44182","NA","NA","NA","NA","5896","47707","102777","NA","NA","NA","NA","NA","NA","NA","NA","2136","103389","NA","104389","NA","NA","102778","NA","NA","NA","102778","2138","10281","10251","44183","10281","42366","2138","New experiment","1","604","1","yes","1024"
"NA","100","100","576","576","#ffffff","1","legacy","Old","legacy","legacy","0","uniform","j","1","1","undefined","undefined","0","0","0","0","0","0","0","31","0","NA","0","NA","0","NA","0","NA","0","47","0","47","NA","NA","47","NA","NA","0","47","5","0","0","0","0","15","0","Thu Mar 10 18:49:52 2022","The main experiment item","yes","","assignment1_final.osexp","D:\UoM\course\semester2\experimental_psychology\assignment1","no","mono","no","18","no","#000000","no","yes","768","legacy","31","15","0","D:/UoM/course/semester2/experimental_psychology/assignment1/10977385.csv","legacy","Lentiform Loewenfeld","3.3.11","yes","0","j","j","space","space","576","576","8112","3504","2","legacy","1024","2","48000","-16","experiment","Walter","0","even","44182","NA","NA","NA","NA","5896","47707","104434","NA","NA","NA","NA","NA","NA","NA","NA","2136","105017","NA","106017","NA","NA","104435","NA","NA","NA","104435","2138","10281","10251","44183","10281","42366","2138","New experiment","1","576","1","yes","1024"
"NA","0","0","903","903","#ffffff","1","legacy","Old","legacy","legacy","0","uniform","j","0","0","undefined","undefined","0","0","0","0","0","0","0","32","0","NA","0","NA","0","NA","0","NA","0","48","0","48","NA","NA","48","NA","NA","0","48","5","0","0","0","0","15","0","Thu Mar 10 18:49:52 2022","The main experiment item","yes","","assignment1_final.osexp","D:\UoM\course\semester2\experimental_psychology\assignment1","no","mono","no","18","no","#000000","no","yes","768","legacy","32","15","0","D:/UoM/course/semester2/experimental_psychology/assignment1/10977385.csv","legacy","Lentiform Loewenfeld","3.3.11","yes","0","f","f","space","space","903","903","8112","3504","2","legacy","1024","2","48000","-16","experiment","Edgar","0","even","44182","NA","NA","NA","NA","5896","47707","106061","NA","NA","NA","NA","NA","NA","NA","NA","2136","106973","NA","107973","NA","NA","106063","NA","NA","NA","106063","2138","10281","10251","44183","10281","42366","2138","New experiment","0","903","1","yes","1024"
"NA","100","100","706","706","#ffffff","1","legacy","Young","legacy","legacy","0","uniform","f","1","1","undefined","undefined","0","0","0","0","0","0","0","33","0","NA","0","NA","0","NA","0","NA","0","49","0","49","NA","NA","49","NA","NA","0","49","5","0","0","0","0","15","0","Thu Mar 10 18:49:52 2022","The main experiment item","yes","","assignment1_final.osexp","D:\UoM\course\semester2\experimental_psychology\assignment1","no","mono","no","18","no","#000000","no","yes","768","legacy","33","15","0","D:/UoM/course/semester2/experimental_psychology/assignment1/10977385.csv","legacy","Lentiform Loewenfeld","3.3.11","yes","0","f","f","space","space","706","706","8112","3504","2","legacy","1024","2","48000","-16","experiment","Joey","0","even","44182","NA","NA","NA","NA","5896","47707","108019","NA","NA","NA","NA","NA","NA","NA","NA","2136","108733","NA","109733","NA","NA","108020","NA","NA","NA","108020","2138","10281","10251","44183","10281","42366","2138","New experiment","1","706","1","yes","1024"
"NA","100","100","656","656","#ffffff","1","legacy","Old","legacy","legacy","0","uniform","j","1","1","undefined","undefined","0","0","0","0","0","0","0","34","0","NA","0","NA","0","NA","0","NA","0","50","0","50","NA","NA","50","NA","NA","0","50","5","0","0","0","0","15","0","Thu Mar 10 18:49:52 2022","The main experiment item","yes","","assignment1_final.osexp","D:\UoM\course\semester2\experimental_psychology\assignment1","no","mono","no","18","no","#000000","no","yes","768","legacy","34","15","0","D:/UoM/course/semester2/experimental_psychology/assignment1/10977385.csv","legacy","Lentiform Loewenfeld","3.3.11","yes","0","j","j","space","space","656","656","8112","3504","2","legacy","1024","2","48000","-16","experiment","Donald","0","even","44182","NA","NA","NA","NA","5896","47707","109778","NA","NA","NA","NA","NA","NA","NA","NA","2136","110442","NA","111442","NA","NA","109779","NA","NA","NA","109779","2138","10281","10251","44183","10281","42366","2138","New experiment","1","656","1","yes","1024"
"NA","100","100","1033","1033","#ffffff","1","legacy","Young","legacy","legacy","0","uniform","f","1","1","undefined","undefined","0","0","0","0","0","0","0","35","0","NA","0","NA","0","NA","0","NA","0","51","0","51","NA","NA","51","NA","NA","0","51","5","0","0","0","0","15","0","Thu Mar 10 18:49:52 2022","The main experiment item","yes","","assignment1_final.osexp","D:\UoM\course\semester2\experimental_psychology\assignment1","no","mono","no","18","no","#000000","no","yes","768","legacy","35","15","0","D:/UoM/course/semester2/experimental_psychology/assignment1/10977385.csv","legacy","Lentiform Loewenfeld","3.3.11","yes","0","f","f","space","space","1033","1033","8112","3504","2","legacy","1024","2","48000","-16","experiment","Brad","0","even","44182","NA","NA","NA","NA","5896","47707","111488","NA","NA","NA","NA","NA","NA","NA","NA","2136","112529","NA","113529","NA","NA","111489","NA","NA","NA","111489","2138","10281","10251","44183","10281","42366","2138","New experiment","1","1033","1","yes","1024"
"NA","100","100","57632","57632","#ffffff","2","legacy","self","legacy","legacy","0","uniform","f","1","1","undefined","undefined","0","0","0","0","0","0","0","35","0","0","0","NA","0","NA","0","NA","0","52","0","52","NA","NA","51","0","NA","0","52","5","0","0","0","0","15","0","Thu Mar 10 18:49:52 2022","The main experiment item","yes","","assignment1_final.osexp","D:\UoM\course\semester2\experimental_psychology\assignment1","no","mono","no","18","no","#000000","no","yes","768","legacy","0","15","0","D:/UoM/course/semester2/experimental_psychology/assignment1/10977385.csv","legacy","Lentiform Loewenfeld","3.3.11","yes","0","f","f","space","space","1850","1850","113414","3504","2","legacy","1024","2","48000","-16","experiment","Oneself","0","even","44182","113562","NA","NA","NA","5896","47707","111488","115553","115569","NA","NA","NA","NA","NA","NA","2136","117427","NA","118427","NA","NA","111489","115570","NA","NA","115570","2138","10281","10251","44183","10281","42366","2138","New experiment","1","115264","2","yes","1024"
"NA","100","100","824","824","#ffffff","2","legacy","self","legacy","legacy","0","uniform","f","1","1","undefined","undefined","0","0","0","0","0","0","0","35","0","1","0","NA","0","NA","0","NA","0","53","0","53","NA","NA","51","1","NA","0","53","5","0","0","0","0","15","0","Thu Mar 10 18:49:52 2022","The main experiment item","yes","","assignment1_final.osexp","D:\UoM\course\semester2\experimental_psychology\assignment1","no","mono","no","18","no","#000000","no","yes","768","legacy","1","15","0","D:/UoM/course/semester2/experimental_psychology/assignment1/10977385.csv","legacy","Lentiform Loewenfeld","3.3.11","yes","0","f","f","space","space","824","824","113414","3504","2","legacy","1024","2","48000","-16","experiment","My","0","even","44182","113562","NA","NA","NA","5896","47707","111488","115553","118463","NA","NA","NA","NA","NA","NA","2136","119295","NA","120295","NA","NA","111489","118464","NA","NA","118464","2138","10281","10251","44183","10281","42366","2138","New experiment","1","824","1","yes","1024"
"NA","100","100","583","583","#ffffff","2","legacy","self","legacy","legacy","0","uniform","f","1","1","undefined","undefined","0","0","0","0","0","0","0","35","0","2","0","NA","0","NA","0","NA","0","54","0","54","NA","NA","51","2","NA","0","54","5","0","0","0","0","15","0","Thu Mar 10 18:49:52 2022","The main experiment item","yes","","assignment1_final.osexp","D:\UoM\course\semester2\experimental_psychology\assignment1","no","mono","no","18","no","#000000","no","yes","768","legacy","2","15","0","D:/UoM/course/semester2/experimental_psychology/assignment1/10977385.csv","legacy","Lentiform Loewenfeld","3.3.11","yes","0","f","f","space","space","583","583","113414","3504","2","legacy","1024","2","48000","-16","experiment","My","0","even","44182","113562","NA","NA","NA","5896","47707","111488","115553","120339","NA","NA","NA","NA","NA","NA","2136","120930","NA","121930","NA","NA","111489","120340","NA","NA","120340","2138","10281","10251","44183","10281","42366","2138","New experiment","1","583","1","yes","1024"
"NA","100","100","609","609","#ffffff","2","legacy","self","legacy","legacy","0","uniform","f","1","1","undefined","undefined","0","0","0","0","0","0","0","35","0","3","0","NA","0","NA","0","NA","0","55","0","55","NA","NA","51","3","NA","0","55","5","0","0","0","0","15","0","Thu Mar 10 18:49:52 2022","The main experiment item","yes","","assignment1_final.osexp","D:\UoM\course\semester2\experimental_psychology\assignment1","no","mono","no","18","no","#000000","no","yes","768","legacy","3","15","0","D:/UoM/course/semester2/experimental_psychology/assignment1/10977385.csv","legacy","Lentiform Loewenfeld","3.3.11","yes","0","f","f","space","space","609","609","113414","3504","2","legacy","1024","2","48000","-16","experiment","Myself","0","even","44182","113562","NA","NA","NA","5896","47707","111488","115553","121975","NA","NA","NA","NA","NA","NA","2136","122592","NA","123592","NA","NA","111489","121976","NA","NA","121976","2138","10281","10251","44183","10281","42366","2138","New experiment","1","609","1","yes","1024"
"NA","100","100","461","461","#ffffff","2","legacy","Other","legacy","legacy","0","uniform","j","1","1","undefined","undefined","0","0","0","0","0","0","0","35","0","4","0","NA","0","NA","0","NA","0","56","0","56","NA","NA","51","4","NA","0","56","5","0","0","0","0","15","0","Thu Mar 10 18:49:52 2022","The main experiment item","yes","","assignment1_final.osexp","D:\UoM\course\semester2\experimental_psychology\assignment1","no","mono","no","18","no","#000000","no","yes","768","legacy","4","15","0","D:/UoM/course/semester2/experimental_psychology/assignment1/10977385.csv","legacy","Lentiform Loewenfeld","3.3.11","yes","0","j","j","space","space","461","461","113414","3504","2","legacy","1024","2","48000","-16","experiment","Them","0","even","44182","113562","NA","NA","NA","5896","47707","111488","115553","123638","NA","NA","NA","NA","NA","NA","2136","124107","NA","125107","NA","NA","111489","123639","NA","NA","123639","2138","10281","10251","44183","10281","42366","2138","New experiment","1","461","1","yes","1024"
"NA","100","100","1367","1367","#ffffff","2","legacy","self","legacy","legacy","0","uniform","f","1","1","undefined","undefined","0","0","0","0","0","0","0","35","0","5","0","NA","0","NA","0","NA","0","57","0","57","NA","NA","51","5","NA","0","57","5","0","0","0","0","15","0","Thu Mar 10 18:49:52 2022","The main experiment item","yes","","assignment1_final.osexp","D:\UoM\course\semester2\experimental_psychology\assignment1","no","mono","no","18","no","#000000","no","yes","768","legacy","5","15","0","D:/UoM/course/semester2/experimental_psychology/assignment1/10977385.csv","legacy","Lentiform Loewenfeld","3.3.11","yes","0","f","f","space","space","1367","1367","113414","3504","2","legacy","1024","2","48000","-16","experiment","Myself","0","even","44182","113562","NA","NA","NA","5896","47707","111488","115553","125151","NA","NA","NA","NA","NA","NA","2136","126527","NA","127527","NA","NA","111489","125153","NA","NA","125153","2138","10281","10251","44183","10281","42366","2138","New experiment","1","1367","1","yes","1024"
"NA","100","100","775","775","#ffffff","2","legacy","self","legacy","legacy","0","uniform","f","1","1","undefined","undefined","0","0","0","0","0","0","0","35","0","6","0","NA","0","NA","0","NA","0","58","0","58","NA","NA","51","6","NA","0","58","5","0","0","0","0","15","0","Thu Mar 10 18:49:52 2022","The main experiment item","yes","","assignment1_final.osexp","D:\UoM\course\semester2\experimental_psychology\assignment1","no","mono","no","18","no","#000000","no","yes","768","legacy","6","15","0","D:/UoM/course/semester2/experimental_psychology/assignment1/10977385.csv","legacy","Lentiform Loewenfeld","3.3.11","yes","0","f","f","space","space","775","775","113414","3504","2","legacy","1024","2","48000","-16","experiment","Mine","0","even","44182","113562","NA","NA","NA","5896","47707","111488","115553","127572","NA","NA","NA","NA","NA","NA","2136","128355","NA","129355","NA","NA","111489","127573","NA","NA","127573","2138","10281","10251","44183","10281","42366","2138","New experiment","1","775","1","yes","1024"
"NA","100","100","868","868","#ffffff","2","legacy","Other","legacy","legacy","0","uniform","j","1","1","undefined","undefined","0","0","0","0","0","0","0","35","0","7","0","NA","0","NA","0","NA","0","59","0","59","NA","NA","51","7","NA","0","59","5","0","0","0","0","15","0","Thu Mar 10 18:49:52 2022","The main experiment item","yes","","assignment1_final.osexp","D:\UoM\course\semester2\experimental_psychology\assignment1","no","mono","no","18","no","#000000","no","yes","768","legacy","7","15","0","D:/UoM/course/semester2/experimental_psychology/assignment1/10977385.csv","legacy","Lentiform Loewenfeld","3.3.11","yes","0","j","j","space","space","868","868","113414","3504","2","legacy","1024","2","48000","-16","experiment","Their","0","even","44182","113562","NA","NA","NA","5896","47707","111488","115553","129390","NA","NA","NA","NA","NA","NA","2136","130266","NA","131266","NA","NA","111489","129391","NA","NA","129391","2138","10281","10251","44183","10281","42366","2138","New experiment","1","868","1","yes","1024"
"NA","0","0","615","615","#ffffff","2","legacy","Other","legacy","legacy","0","uniform","j","0","0","undefined","undefined","0","0","0","0","0","0","0","35","0","8","0","NA","0","NA","0","NA","0","60","0","60","NA","NA","51","8","NA","0","60","5","0","0","0","0","15","0","Thu Mar 10 18:49:52 2022","The main experiment item","yes","","assignment1_final.osexp","D:\UoM\course\semester2\experimental_psychology\assignment1","no","mono","no","18","no","#000000","no","yes","768","legacy","8","15","0","D:/UoM/course/semester2/experimental_psychology/assignment1/10977385.csv","legacy","Lentiform Loewenfeld","3.3.11","yes","0","f","f","space","space","615","615","113414","3504","2","legacy","1024","2","48000","-16","experiment","Theirs","0","even","44182","113562","NA","NA","NA","5896","47707","111488","115553","131313","NA","NA","NA","NA","NA","NA","2136","131936","NA","132936","NA","NA","111489","131314","NA","NA","131314","2138","10281","10251","44183","10281","42366","2138","New experiment","0","615","1","yes","1024"
"NA","100","100","634","634","#ffffff","2","legacy","Other","legacy","legacy","0","uniform","j","1","1","undefined","undefined","0","0","0","0","0","0","0","35","0","9","0","NA","0","NA","0","NA","0","61","0","61","NA","NA","51","9","NA","0","61","5","0","0","0","0","15","0","Thu Mar 10 18:49:52 2022","The main experiment item","yes","","assignment1_final.osexp","D:\UoM\course\semester2\experimental_psychology\assignment1","no","mono","no","18","no","#000000","no","yes","768","legacy","9","15","0","D:/UoM/course/semester2/experimental_psychology/assignment1/10977385.csv","legacy","Lentiform Loewenfeld","3.3.11","yes","0","j","j","space","space","634","634","113414","3504","2","legacy","1024","2","48000","-16","experiment","Their","0","even","44182","113562","NA","NA","NA","5896","47707","111488","115553","132980","NA","NA","NA","NA","NA","NA","2136","133622","NA","134622","NA","NA","111489","132981","NA","NA","132981","2138","10281","10251","44183","10281","42366","2138","New experiment","1","634","1","yes","1024"
"NA","100","100","458","458","#ffffff","2","legacy","Other","legacy","legacy","0","uniform","j","1","1","undefined","undefined","0","0","0","0","0","0","0","35","0","10","0","NA","0","NA","0","NA","0","62","0","62","NA","NA","51","10","NA","0","62","5","0","0","0","0","15","0","Thu Mar 10 18:49:52 2022","The main experiment item","yes","","assignment1_final.osexp","D:\UoM\course\semester2\experimental_psychology\assignment1","no","mono","no","18","no","#000000","no","yes","768","legacy","10","15","0","D:/UoM/course/semester2/experimental_psychology/assignment1/10977385.csv","legacy","Lentiform Loewenfeld","3.3.11","yes","0","j","j","space","space","458","458","113414","3504","2","legacy","1024","2","48000","-16","experiment","They","0","even","44182","113562","NA","NA","NA","5896","47707","111488","115553","134666","NA","NA","NA","NA","NA","NA","2136","135132","NA","136132","NA","NA","111489","134667","NA","NA","134667","2138","10281","10251","44183","10281","42366","2138","New experiment","1","458","1","yes","1024"
"NA","100","100","472","472","#ffffff","2","legacy","Other","legacy","legacy","0","uniform","j","1","1","undefined","undefined","0","0","0","0","0","0","0","35","0","11","0","NA","0","NA","0","NA","0","63","0","63","NA","NA","51","11","NA","0","63","5","0","0","0","0","15","0","Thu Mar 10 18:49:52 2022","The main experiment item","yes","","assignment1_final.osexp","D:\UoM\course\semester2\experimental_psychology\assignment1","no","mono","no","18","no","#000000","no","yes","768","legacy","11","15","0","D:/UoM/course/semester2/experimental_psychology/assignment1/10977385.csv","legacy","Lentiform Loewenfeld","3.3.11","yes","0","j","j","space","space","472","472","113414","3504","2","legacy","1024","2","48000","-16","experiment","Theirs","0","even","44182","113562","NA","NA","NA","5896","47707","111488","115553","136176","NA","NA","NA","NA","NA","NA","2136","136658","NA","137658","NA","NA","111489","136177","NA","NA","136177","2138","10281","10251","44183","10281","42366","2138","New experiment","1","472","1","yes","1024"
"NA","100","100","546","546","#ffffff","2","legacy","Other","legacy","legacy","0","uniform","j","1","1","undefined","undefined","0","0","0","0","0","0","0","35","0","12","0","NA","0","NA","0","NA","0","64","0","64","NA","NA","51","12","NA","0","64","5","0","0","0","0","15","0","Thu Mar 10 18:49:52 2022","The main experiment item","yes","","assignment1_final.osexp","D:\UoM\course\semester2\experimental_psychology\assignment1","no","mono","no","18","no","#000000","no","yes","768","legacy","12","15","0","D:/UoM/course/semester2/experimental_psychology/assignment1/10977385.csv","legacy","Lentiform Loewenfeld","3.3.11","yes","0","j","j","space","space","546","546","113414","3504","2","legacy","1024","2","48000","-16","experiment","Themselves","0","even","44182","113562","NA","NA","NA","5896","47707","111488","115553","137703","NA","NA","NA","NA","NA","NA","2136","138257","NA","139257","NA","NA","111489","137704","NA","NA","137704","2138","10281","10251","44183","10281","42366","2138","New experiment","1","546","1","yes","1024"
"NA","100","100","503","503","#ffffff","2","legacy","Other","legacy","legacy","0","uniform","j","1","1","undefined","undefined","0","0","0","0","0","0","0","35","0","13","0","NA","0","NA","0","NA","0","65","0","65","NA","NA","51","13","NA","0","65","5","0","0","0","0","15","0","Thu Mar 10 18:49:52 2022","The main experiment item","yes","","assignment1_final.osexp","D:\UoM\course\semester2\experimental_psychology\assignment1","no","mono","no","18","no","#000000","no","yes","768","legacy","13","15","0","D:/UoM/course/semester2/experimental_psychology/assignment1/10977385.csv","legacy","Lentiform Loewenfeld","3.3.11","yes","0","j","j","space","space","503","503","113414","3504","2","legacy","1024","2","48000","-16","experiment","Theirs","0","even","44182","113562","NA","NA","NA","5896","47707","111488","115553","139301","NA","NA","NA","NA","NA","NA","2136","139812","NA","140812","NA","NA","111489","139302","NA","NA","139302","2138","10281","10251","44183","10281","42366","2138","New experiment","1","503","1","yes","1024"
"NA","100","100","1149","1149","#ffffff","2","legacy","self","legacy","legacy","0","uniform","f","1","1","undefined","undefined","0","0","0","0","0","0","0","35","0","14","0","NA","0","NA","0","NA","0","66","0","66","NA","NA","51","14","NA","0","66","5","0","0","0","0","15","0","Thu Mar 10 18:49:52 2022","The main experiment item","yes","","assignment1_final.osexp","D:\UoM\course\semester2\experimental_psychology\assignment1","no","mono","no","18","no","#000000","no","yes","768","legacy","14","15","0","D:/UoM/course/semester2/experimental_psychology/assignment1/10977385.csv","legacy","Lentiform Loewenfeld","3.3.11","yes","0","f","f","space","space","1149","1149","113414","3504","2","legacy","1024","2","48000","-16","experiment","Me","0","even","44182","113562","NA","NA","NA","5896","47707","111488","115553","140858","NA","NA","NA","NA","NA","NA","2136","142015","NA","143016","NA","NA","111489","140859","NA","NA","140859","2138","10281","10251","44183","10281","42366","2138","New experiment","1","1149","1","yes","1024"
"NA","100","100","642","642","#ffffff","2","legacy","Other","legacy","legacy","0","uniform","j","1","1","undefined","undefined","0","0","0","0","0","0","0","35","0","15","0","NA","0","NA","0","NA","0","67","0","67","NA","NA","51","15","NA","0","67","5","0","0","0","0","15","0","Thu Mar 10 18:49:52 2022","The main experiment item","yes","","assignment1_final.osexp","D:\UoM\course\semester2\experimental_psychology\assignment1","no","mono","no","18","no","#000000","no","yes","768","legacy","15","15","0","D:/UoM/course/semester2/experimental_psychology/assignment1/10977385.csv","legacy","Lentiform Loewenfeld","3.3.11","yes","0","j","j","space","space","642","642","113414","3504","2","legacy","1024","2","48000","-16","experiment","They","0","even","44182","113562","NA","NA","NA","5896","47707","111488","115553","143061","NA","NA","NA","NA","NA","NA","2136","143713","NA","144713","NA","NA","111489","143063","NA","NA","143063","2138","10281","10251","44183","10281","42366","2138","New experiment","1","642","1","yes","1024"
"NA","100","100","614","614","#ffffff","2","legacy","Other","legacy","legacy","0","uniform","j","1","1","undefined","undefined","0","0","0","0","0","0","0","35","0","16","0","NA","0","NA","0","NA","0","68","0","68","NA","NA","51","16","NA","0","68","5","0","0","0","0","15","0","Thu Mar 10 18:49:52 2022","The main experiment item","yes","","assignment1_final.osexp","D:\UoM\course\semester2\experimental_psychology\assignment1","no","mono","no","18","no","#000000","no","yes","768","legacy","16","15","0","D:/UoM/course/semester2/experimental_psychology/assignment1/10977385.csv","legacy","Lentiform Loewenfeld","3.3.11","yes","0","j","j","space","space","614","614","113414","3504","2","legacy","1024","2","48000","-16","experiment","They","0","even","44182","113562","NA","NA","NA","5896","47707","111488","115553","144757","NA","NA","NA","NA","NA","NA","2136","145380","NA","146380","NA","NA","111489","144758","NA","NA","144758","2138","10281","10251","44183","10281","42366","2138","New experiment","1","614","1","yes","1024"
"NA","100","100","571","571","#ffffff","2","legacy","Other","legacy","legacy","0","uniform","j","1","1","undefined","undefined","0","0","0","0","0","0","0","35","0","17","0","NA","0","NA","0","NA","0","69","0","69","NA","NA","51","17","NA","0","69","5","0","0","0","0","15","0","Thu Mar 10 18:49:52 2022","The main experiment item","yes","","assignment1_final.osexp","D:\UoM\course\semester2\experimental_psychology\assignment1","no","mono","no","18","no","#000000","no","yes","768","legacy","17","15","0","D:/UoM/course/semester2/experimental_psychology/assignment1/10977385.csv","legacy","Lentiform Loewenfeld","3.3.11","yes","0","j","j","space","space","571","571","113414","3504","2","legacy","1024","2","48000","-16","experiment","Them","0","even","44182","113562","NA","NA","NA","5896","47707","111488","115553","146425","NA","NA","NA","NA","NA","NA","2136","147007","NA","148007","NA","NA","111489","146426","NA","NA","146426","2138","10281","10251","44183","10281","42366","2138","New experiment","1","571","1","yes","1024"
"NA","100","100","599","599","#ffffff","2","legacy","Other","legacy","legacy","0","uniform","j","1","1","undefined","undefined","0","0","0","0","0","0","0","35","0","18","0","NA","0","NA","0","NA","0","70","0","70","NA","NA","51","18","NA","0","70","5","0","0","0","0","15","0","Thu Mar 10 18:49:52 2022","The main experiment item","yes","","assignment1_final.osexp","D:\UoM\course\semester2\experimental_psychology\assignment1","no","mono","no","18","no","#000000","no","yes","768","legacy","18","15","0","D:/UoM/course/semester2/experimental_psychology/assignment1/10977385.csv","legacy","Lentiform Loewenfeld","3.3.11","yes","0","j","j","space","space","599","599","113414","3504","2","legacy","1024","2","48000","-16","experiment","Themselves","0","even","44182","113562","NA","NA","NA","5896","47707","111488","115553","148053","NA","NA","NA","NA","NA","NA","2136","148661","NA","149661","NA","NA","111489","148054","NA","NA","148054","2138","10281","10251","44183","10281","42366","2138","New experiment","1","599","1","yes","1024"
"NA","100","100","608","608","#ffffff","2","legacy","self","legacy","legacy","0","uniform","f","1","1","undefined","undefined","0","0","0","0","0","0","0","35","0","19","0","NA","0","NA","0","NA","0","71","0","71","NA","NA","51","19","NA","0","71","5","0","0","0","0","15","0","Thu Mar 10 18:49:52 2022","The main experiment item","yes","","assignment1_final.osexp","D:\UoM\course\semester2\experimental_psychology\assignment1","no","mono","no","18","no","#000000","no","yes","768","legacy","19","15","0","D:/UoM/course/semester2/experimental_psychology/assignment1/10977385.csv","legacy","Lentiform Loewenfeld","3.3.11","yes","0","f","f","space","space","608","608","113414","3504","2","legacy","1024","2","48000","-16","experiment","I","0","even","44182","113562","NA","NA","NA","5896","47707","111488","115553","149705","NA","NA","NA","NA","NA","NA","2136","150321","NA","151321","NA","NA","111489","149706","NA","NA","149706","2138","10281","10251","44183","10281","42366","2138","New experiment","1","608","1","yes","1024"
"NA","100","100","731","731","#ffffff","2","legacy","self","legacy","legacy","0","uniform","f","1","1","undefined","undefined","0","0","0","0","0","0","0","35","0","20","0","NA","0","NA","0","NA","0","72","0","72","NA","NA","51","20","NA","0","72","5","0","0","0","0","15","0","Thu Mar 10 18:49:52 2022","The main experiment item","yes","","assignment1_final.osexp","D:\UoM\course\semester2\experimental_psychology\assignment1","no","mono","no","18","no","#000000","no","yes","768","legacy","20","15","0","D:/UoM/course/semester2/experimental_psychology/assignment1/10977385.csv","legacy","Lentiform Loewenfeld","3.3.11","yes","0","f","f","space","space","731","731","113414","3504","2","legacy","1024","2","48000","-16","experiment","Me","0","even","44182","113562","NA","NA","NA","5896","47707","111488","115553","151365","NA","NA","NA","NA","NA","NA","2136","152104","NA","153104","NA","NA","111489","151366","NA","NA","151366","2138","10281","10251","44183","10281","42366","2138","New experiment","1","731","1","yes","1024"
"NA","100","100","751","751","#ffffff","2","legacy","self","legacy","legacy","0","uniform","f","1","1","undefined","undefined","0","0","0","0","0","0","0","35","0","21","0","NA","0","NA","0","NA","0","73","0","73","NA","NA","51","21","NA","0","73","5","0","0","0","0","15","0","Thu Mar 10 18:49:52 2022","The main experiment item","yes","","assignment1_final.osexp","D:\UoM\course\semester2\experimental_psychology\assignment1","no","mono","no","18","no","#000000","no","yes","768","legacy","21","15","0","D:/UoM/course/semester2/experimental_psychology/assignment1/10977385.csv","legacy","Lentiform Loewenfeld","3.3.11","yes","0","f","f","space","space","751","751","113414","3504","2","legacy","1024","2","48000","-16","experiment","Me","0","even","44182","113562","NA","NA","NA","5896","47707","111488","115553","153139","NA","NA","NA","NA","NA","NA","2136","153898","NA","154898","NA","NA","111489","153140","NA","NA","153140","2138","10281","10251","44183","10281","42366","2138","New experiment","1","751","1","yes","1024"
"NA","100","100","761","761","#ffffff","2","legacy","self","legacy","legacy","0","uniform","f","1","1","undefined","undefined","0","0","0","0","0","0","0","35","0","22","0","NA","0","NA","0","NA","0","74","0","74","NA","NA","51","22","NA","0","74","5","0","0","0","0","15","0","Thu Mar 10 18:49:52 2022","The main experiment item","yes","","assignment1_final.osexp","D:\UoM\course\semester2\experimental_psychology\assignment1","no","mono","no","18","no","#000000","no","yes","768","legacy","22","15","0","D:/UoM/course/semester2/experimental_psychology/assignment1/10977385.csv","legacy","Lentiform Loewenfeld","3.3.11","yes","0","f","f","space","space","761","761","113414","3504","2","legacy","1024","2","48000","-16","experiment","Myself","0","even","44182","113562","NA","NA","NA","5896","47707","111488","115553","154942","NA","NA","NA","NA","NA","NA","2136","155711","NA","156711","NA","NA","111489","154943","NA","NA","154943","2138","10281","10251","44183","10281","42366","2138","New experiment","1","761","1","yes","1024"
"NA","100","100","718","718","#ffffff","2","legacy","Other","legacy","legacy","0","uniform","j","1","1","undefined","undefined","0","0","0","0","0","0","0","35","0","23","0","NA","0","NA","0","NA","0","75","0","75","NA","NA","51","23","NA","0","75","5","0","0","0","0","15","0","Thu Mar 10 18:49:52 2022","The main experiment item","yes","","assignment1_final.osexp","D:\UoM\course\semester2\experimental_psychology\assignment1","no","mono","no","18","no","#000000","no","yes","768","legacy","23","15","0","D:/UoM/course/semester2/experimental_psychology/assignment1/10977385.csv","legacy","Lentiform Loewenfeld","3.3.11","yes","0","j","j","space","space","718","718","113414","3504","2","legacy","1024","2","48000","-16","experiment","Them","0","even","44182","113562","NA","NA","NA","5896","47707","111488","115553","156757","NA","NA","NA","NA","NA","NA","2136","157483","NA","158483","NA","NA","111489","156758","NA","NA","156758","2138","10281","10251","44183","10281","42366","2138","New experiment","1","718","1","yes","1024"
"NA","100","100","1328","1328","#ffffff","2","legacy","self","legacy","legacy","0","uniform","f","1","1","undefined","undefined","0","0","0","0","0","0","0","35","0","24","0","NA","0","NA","0","NA","0","76","0","76","NA","NA","51","24","NA","0","76","5","0","0","0","0","15","0","Thu Mar 10 18:49:52 2022","The main experiment item","yes","","assignment1_final.osexp","D:\UoM\course\semester2\experimental_psychology\assignment1","no","mono","no","18","no","#000000","no","yes","768","legacy","24","15","0","D:/UoM/course/semester2/experimental_psychology/assignment1/10977385.csv","legacy","Lentiform Loewenfeld","3.3.11","yes","0","f","f","space","space","1328","1328","113414","3504","2","legacy","1024","2","48000","-16","experiment","Oneself","0","even","44182","113562","NA","NA","NA","5896","47707","111488","115553","158527","NA","NA","NA","NA","NA","NA","2136","159863","NA","160863","NA","NA","111489","158528","NA","NA","158528","2138","10281","10251","44183","10281","42366","2138","New experiment","1","1328","1","yes","1024"
"NA","100","100","761","761","#ffffff","2","legacy","Other","legacy","legacy","0","uniform","j","1","1","undefined","undefined","0","0","0","0","0","0","0","35","0","25","0","NA","0","NA","0","NA","0","77","0","77","NA","NA","51","25","NA","0","77","5","0","0","0","0","15","0","Thu Mar 10 18:49:52 2022","The main experiment item","yes","","assignment1_final.osexp","D:\UoM\course\semester2\experimental_psychology\assignment1","no","mono","no","18","no","#000000","no","yes","768","legacy","25","15","0","D:/UoM/course/semester2/experimental_psychology/assignment1/10977385.csv","legacy","Lentiform Loewenfeld","3.3.11","yes","0","j","j","space","space","761","761","113414","3504","2","legacy","1024","2","48000","-16","experiment","Themselves","0","even","44182","113562","NA","NA","NA","5896","47707","111488","115553","160907","NA","NA","NA","NA","NA","NA","2136","161676","NA","162676","NA","NA","111489","160908","NA","NA","160908","2138","10281","10251","44183","10281","42366","2138","New experiment","1","761","1","yes","1024"
"NA","100","100","571","571","#ffffff","2","legacy","Other","legacy","legacy","0","uniform","j","1","1","undefined","undefined","0","0","0","0","0","0","0","35","0","26","0","NA","0","NA","0","NA","0","78","0","78","NA","NA","51","26","NA","0","78","5","0","0","0","0","15","0","Thu Mar 10 18:49:52 2022","The main experiment item","yes","","assignment1_final.osexp","D:\UoM\course\semester2\experimental_psychology\assignment1","no","mono","no","18","no","#000000","no","yes","768","legacy","26","15","0","D:/UoM/course/semester2/experimental_psychology/assignment1/10977385.csv","legacy","Lentiform Loewenfeld","3.3.11","yes","0","j","j","space","space","571","571","113414","3504","2","legacy","1024","2","48000","-16","experiment","Those","0","even","44182","113562","NA","NA","NA","5896","47707","111488","115553","162720","NA","NA","NA","NA","NA","NA","2136","163299","NA","164299","NA","NA","111489","162721","NA","NA","162721","2138","10281","10251","44183","10281","42366","2138","New experiment","1","571","1","yes","1024"
"NA","100","100","732","732","#ffffff","2","legacy","self","legacy","legacy","0","uniform","f","1","1","undefined","undefined","0","0","0","0","0","0","0","35","0","27","0","NA","0","NA","0","NA","0","79","0","79","NA","NA","51","27","NA","0","79","5","0","0","0","0","15","0","Thu Mar 10 18:49:52 2022","The main experiment item","yes","","assignment1_final.osexp","D:\UoM\course\semester2\experimental_psychology\assignment1","no","mono","no","18","no","#000000","no","yes","768","legacy","27","15","0","D:/UoM/course/semester2/experimental_psychology/assignment1/10977385.csv","legacy","Lentiform Loewenfeld","3.3.11","yes","0","f","f","space","space","732","732","113414","3504","2","legacy","1024","2","48000","-16","experiment","My","0","even","44182","113562","NA","NA","NA","5896","47707","111488","115553","164336","NA","NA","NA","NA","NA","NA","2136","165076","NA","166076","NA","NA","111489","164337","NA","NA","164337","2138","10281","10251","44183","10281","42366","2138","New experiment","1","732","1","yes","1024"
"NA","100","100","566","566","#ffffff","2","legacy","Other","legacy","legacy","0","uniform","j","1","1","undefined","undefined","0","0","0","0","0","0","0","35","0","28","0","NA","0","NA","0","NA","0","80","0","80","NA","NA","51","28","NA","0","80","5","0","0","0","0","15","0","Thu Mar 10 18:49:52 2022","The main experiment item","yes","","assignment1_final.osexp","D:\UoM\course\semester2\experimental_psychology\assignment1","no","mono","no","18","no","#000000","no","yes","768","legacy","28","15","0","D:/UoM/course/semester2/experimental_psychology/assignment1/10977385.csv","legacy","Lentiform Loewenfeld","3.3.11","yes","0","j","j","space","space","566","566","113414","3504","2","legacy","1024","2","48000","-16","experiment","Those","0","even","44182","113562","NA","NA","NA","5896","47707","111488","115553","166111","NA","NA","NA","NA","NA","NA","2136","166685","NA","167685","NA","NA","111489","166112","NA","NA","166112","2138","10281","10251","44183","10281","42366","2138","New experiment","1","566","1","yes","1024"
"NA","100","100","536","536","#ffffff","2","legacy","self","legacy","legacy","0","uniform","f","1","1","undefined","undefined","0","0","0","0","0","0","0","35","0","29","0","NA","0","NA","0","NA","0","81","0","81","NA","NA","51","29","NA","0","81","5","0","0","0","0","15","0","Thu Mar 10 18:49:52 2022","The main experiment item","yes","","assignment1_final.osexp","D:\UoM\course\semester2\experimental_psychology\assignment1","no","mono","no","18","no","#000000","no","yes","768","legacy","29","15","0","D:/UoM/course/semester2/experimental_psychology/assignment1/10977385.csv","legacy","Lentiform Loewenfeld","3.3.11","yes","0","f","f","space","space","536","536","113414","3504","2","legacy","1024","2","48000","-16","experiment","I","0","even","44182","113562","NA","NA","NA","5896","47707","111488","115553","167718","NA","NA","NA","NA","NA","NA","2136","168264","NA","169264","NA","NA","111489","167719","NA","NA","167720","2138","10281","10251","44183","10281","42366","2138","New experiment","1","536","1","yes","1024"
"NA","100","100","655","655","#ffffff","2","legacy","self","legacy","legacy","0","uniform","f","1","1","undefined","undefined","0","0","0","0","0","0","0","35","0","30","0","NA","0","NA","0","NA","0","82","0","82","NA","NA","51","30","NA","0","82","5","0","0","0","0","15","0","Thu Mar 10 18:49:52 2022","The main experiment item","yes","","assignment1_final.osexp","D:\UoM\course\semester2\experimental_psychology\assignment1","no","mono","no","18","no","#000000","no","yes","768","legacy","30","15","0","D:/UoM/course/semester2/experimental_psychology/assignment1/10977385.csv","legacy","Lentiform Loewenfeld","3.3.11","yes","0","f","f","space","space","655","655","113414","3504","2","legacy","1024","2","48000","-16","experiment","Mine","0","even","44182","113562","NA","NA","NA","5896","47707","111488","115553","169309","NA","NA","NA","NA","NA","NA","2136","169972","NA","170972","NA","NA","111489","169310","NA","NA","169310","2138","10281","10251","44183","10281","42366","2138","New experiment","1","655","1","yes","1024"
"NA","100","100","1110","1110","#ffffff","2","legacy","Other","legacy","legacy","0","uniform","j","1","1","undefined","undefined","0","0","0","0","0","0","0","35","0","31","0","NA","0","NA","0","NA","0","83","0","83","NA","NA","51","31","NA","0","83","5","0","0","0","0","15","0","Thu Mar 10 18:49:52 2022","The main experiment item","yes","","assignment1_final.osexp","D:\UoM\course\semester2\experimental_psychology\assignment1","no","mono","no","18","no","#000000","no","yes","768","legacy","31","15","0","D:/UoM/course/semester2/experimental_psychology/assignment1/10977385.csv","legacy","Lentiform Loewenfeld","3.3.11","yes","0","j","j","space","space","1110","1110","113414","3504","2","legacy","1024","2","48000","-16","experiment","Those","0","even","44182","113562","NA","NA","NA","5896","47707","111488","115553","171016","NA","NA","NA","NA","NA","NA","2136","172135","NA","173135","NA","NA","111489","171018","NA","NA","171018","2138","10281","10251","44183","10281","42366","2138","New experiment","1","1110","1","yes","1024"
"NA","100","100","893","893","#ffffff","2","legacy","self","legacy","legacy","0","uniform","f","1","1","undefined","undefined","0","0","0","0","0","0","0","35","0","32","0","NA","0","NA","0","NA","0","84","0","84","NA","NA","51","32","NA","0","84","5","0","0","0","0","15","0","Thu Mar 10 18:49:52 2022","The main experiment item","yes","","assignment1_final.osexp","D:\UoM\course\semester2\experimental_psychology\assignment1","no","mono","no","18","no","#000000","no","yes","768","legacy","32","15","0","D:/UoM/course/semester2/experimental_psychology/assignment1/10977385.csv","legacy","Lentiform Loewenfeld","3.3.11","yes","0","f","f","space","space","893","893","113414","3504","2","legacy","1024","2","48000","-16","experiment","Oneself","0","even","44182","113562","NA","NA","NA","5896","47707","111488","115553","173180","NA","NA","NA","NA","NA","NA","2136","174082","NA","175082","NA","NA","111489","173181","NA","NA","173181","2138","10281","10251","44183","10281","42366","2138","New experiment","1","893","1","yes","1024"
"NA","100","100","766","766","#ffffff","2","legacy","self","legacy","legacy","0","uniform","f","1","1","undefined","undefined","0","0","0","0","0","0","0","35","0","33","0","NA","0","NA","0","NA","0","85","0","85","NA","NA","51","33","NA","0","85","5","0","0","0","0","15","0","Thu Mar 10 18:49:52 2022","The main experiment item","yes","","assignment1_final.osexp","D:\UoM\course\semester2\experimental_psychology\assignment1","no","mono","no","18","no","#000000","no","yes","768","legacy","33","15","0","D:/UoM/course/semester2/experimental_psychology/assignment1/10977385.csv","legacy","Lentiform Loewenfeld","3.3.11","yes","0","f","f","space","space","766","766","113414","3504","2","legacy","1024","2","48000","-16","experiment","Mine","0","even","44182","113562","NA","NA","NA","5896","47707","111488","115553","175126","NA","NA","NA","NA","NA","NA","2136","175901","NA","176901","NA","NA","111489","175127","NA","NA","175127","2138","10281","10251","44183","10281","42366","2138","New experiment","1","766","1","yes","1024"
"NA","100","100","554","554","#ffffff","2","legacy","Other","legacy","legacy","0","uniform","j","1","1","undefined","undefined","0","0","0","0","0","0","0","35","0","34","0","NA","0","NA","0","NA","0","86","0","86","NA","NA","51","34","NA","0","86","5","0","0","0","0","15","0","Thu Mar 10 18:49:52 2022","The main experiment item","yes","","assignment1_final.osexp","D:\UoM\course\semester2\experimental_psychology\assignment1","no","mono","no","18","no","#000000","no","yes","768","legacy","34","15","0","D:/UoM/course/semester2/experimental_psychology/assignment1/10977385.csv","legacy","Lentiform Loewenfeld","3.3.11","yes","0","j","j","space","space","554","554","113414","3504","2","legacy","1024","2","48000","-16","experiment","Their","0","even","44182","113562","NA","NA","NA","5896","47707","111488","115553","176946","NA","NA","NA","NA","NA","NA","2136","177509","NA","178509","NA","NA","111489","176947","NA","NA","176947","2138","10281","10251","44183","10281","42366","2138","New experiment","1","554","1","yes","1024"
"NA","100","100","607","607","#ffffff","2","legacy","self","legacy","legacy","0","uniform","f","1","1","undefined","undefined","0","0","0","0","0","0","0","35","0","35","0","NA","0","NA","0","NA","0","87","0","87","NA","NA","51","35","NA","0","87","5","0","0","0","0","15","0","Thu Mar 10 18:49:52 2022","The main experiment item","yes","","assignment1_final.osexp","D:\UoM\course\semester2\experimental_psychology\assignment1","no","mono","no","18","no","#000000","no","yes","768","legacy","35","15","0","D:/UoM/course/semester2/experimental_psychology/assignment1/10977385.csv","legacy","Lentiform Loewenfeld","3.3.11","yes","0","f","f","space","space","607","607","113414","3504","2","legacy","1024","2","48000","-16","experiment","I","0","even","44182","113562","NA","NA","NA","5896","47707","111488","115553","178544","NA","NA","NA","NA","NA","NA","2136","179160","NA","180160","NA","NA","111489","178546","NA","NA","178546","2138","10281","10251","44183","10281","42366","2138","New experiment","1","607","1","yes","1024"
"blue","100","100","90979","90979","#ffffff","3","legacy","self","legacy","legacy","0","uniform","f","1","1","undefined","undefined","0","0","0","0","0","0","0","35","0","35","0","0","0","NA","0","NA","0","88","0","88","0","NA","51","35","NA","0","88","5","0","0","0","0","15","0","Thu Mar 10 18:49:52 2022","The main experiment item","yes","","assignment1_final.osexp","D:\UoM\course\semester2\experimental_psychology\assignment1","no","mono","no","18","no","#000000","no","yes","768","legacy","0","15","0","D:/UoM/course/semester2/experimental_psychology/assignment1/10977385.csv","legacy","Lentiform Loewenfeld","3.3.11","yes","0","f","f","space","space","1768","1768","180190","3504","2","legacy","1024","2","48000","-16","experiment","Mine","0","even","44182","113562","180193","NA","NA","5896","47707","111488","115553","178544","182329","182349","NA","NA","NA","NA","2136","184126","NA","185126","182350","NA","111489","178546","NA","NA","182350","2138","10281","10251","44183","10281","42366","2138","New experiment","1","181958","2","yes","1024"
"blue","100","100","715","715","#ffffff","3","legacy","Other","legacy","legacy","0","uniform","j","1","1","undefined","undefined","0","0","0","0","0","0","0","35","0","35","0","1","0","NA","0","NA","0","89","0","89","1","NA","51","35","NA","0","89","5","0","0","0","0","15","0","Thu Mar 10 18:49:52 2022","The main experiment item","yes","","assignment1_final.osexp","D:\UoM\course\semester2\experimental_psychology\assignment1","no","mono","no","18","no","#000000","no","yes","768","legacy","1","15","0","D:/UoM/course/semester2/experimental_psychology/assignment1/10977385.csv","legacy","Lentiform Loewenfeld","3.3.11","yes","0","j","j","space","space","715","715","180190","3504","2","legacy","1024","2","48000","-16","experiment","Themselves","0","even","44182","113562","180193","NA","NA","5896","47707","111488","115553","178544","182329","185176","NA","NA","NA","NA","2136","185899","NA","186899","185177","NA","111489","178546","NA","NA","185177","2138","10281","10251","44183","10281","42366","2138","New experiment","1","715","1","yes","1024"
"black","100","100","1825","1825","#ffffff","3","legacy","Young","legacy","legacy","0","uniform","f","1","1","undefined","undefined","0","0","0","0","0","0","0","35","0","35","0","2","0","NA","0","NA","0","90","0","90","2","NA","51","35","NA","0","90","5","0","0","0","0","15","0","Thu Mar 10 18:49:52 2022","The main experiment item","yes","","assignment1_final.osexp","D:\UoM\course\semester2\experimental_psychology\assignment1","no","mono","no","18","no","#000000","no","yes","768","legacy","2","15","0","D:/UoM/course/semester2/experimental_psychology/assignment1/10977385.csv","legacy","Lentiform Loewenfeld","3.3.11","yes","0","f","f","space","space","1825","1825","180190","3504","2","legacy","1024","2","48000","-16","experiment","Billy","0","even","44182","113562","180193","NA","NA","5896","47707","111488","115553","178544","182329","186949","NA","NA","NA","NA","2136","188782","NA","189782","186950","NA","111489","178546","NA","NA","186950","2138","10281","10251","44183","10281","42366","2138","New experiment","1","1825","1","yes","1024"
"black","100","100","886","886","#ffffff","3","legacy","Old","legacy","legacy","0","uniform","j","1","1","undefined","undefined","0","0","0","0","0","0","0","35","0","35","0","3","0","NA","0","NA","0","91","0","91","3","NA","51","35","NA","0","91","5","0","0","0","0","15","0","Thu Mar 10 18:49:52 2022","The main experiment item","yes","","assignment1_final.osexp","D:\UoM\course\semester2\experimental_psychology\assignment1","no","mono","no","18","no","#000000","no","yes","768","legacy","3","15","0","D:/UoM/course/semester2/experimental_psychology/assignment1/10977385.csv","legacy","Lentiform Loewenfeld","3.3.11","yes","0","j","j","space","space","886","886","180190","3504","2","legacy","1024","2","48000","-16","experiment","Cecil","0","even","44182","113562","180193","NA","NA","5896","47707","111488","115553","178544","182329","189823","NA","NA","NA","NA","2136","190717","NA","191717","189824","NA","111489","178546","NA","NA","189824","2138","10281","10251","44183","10281","42366","2138","New experiment","1","886","1","yes","1024"
"black","100","100","783","783","#ffffff","3","legacy","Old","legacy","legacy","0","uniform","j","1","1","undefined","undefined","0","0","0","0","0","0","0","35","0","35","0","4","0","NA","0","NA","0","92","0","92","4","NA","51","35","NA","0","92","5","0","0","0","0","15","0","Thu Mar 10 18:49:52 2022","The main experiment item","yes","","assignment1_final.osexp","D:\UoM\course\semester2\experimental_psychology\assignment1","no","mono","no","18","no","#000000","no","yes","768","legacy","4","15","0","D:/UoM/course/semester2/experimental_psychology/assignment1/10977385.csv","legacy","Lentiform Loewenfeld","3.3.11","yes","0","j","j","space","space","783","783","180190","3504","2","legacy","1024","2","48000","-16","experiment","Cecil","0","even","44182","113562","180193","NA","NA","5896","47707","111488","115553","178544","182329","191770","NA","NA","NA","NA","2136","192562","NA","193562","191771","NA","111489","178546","NA","NA","191771","2138","10281","10251","44183","10281","42366","2138","New experiment","1","783","1","yes","1024"
"black","100","100","702","702","#ffffff","3","legacy","Young","legacy","legacy","0","uniform","f","1","1","undefined","undefined","0","0","0","0","0","0","0","35","0","35","0","5","0","NA","0","NA","0","93","0","93","5","NA","51","35","NA","0","93","5","0","0","0","0","15","0","Thu Mar 10 18:49:52 2022","The main experiment item","yes","","assignment1_final.osexp","D:\UoM\course\semester2\experimental_psychology\assignment1","no","mono","no","18","no","#000000","no","yes","768","legacy","5","15","0","D:/UoM/course/semester2/experimental_psychology/assignment1/10977385.csv","legacy","Lentiform Loewenfeld","3.3.11","yes","0","f","f","space","space","702","702","180190","3504","2","legacy","1024","2","48000","-16","experiment","Joey","0","even","44182","113562","180193","NA","NA","5896","47707","111488","115553","178544","182329","193603","NA","NA","NA","NA","2136","194313","NA","195313","193604","NA","111489","178546","NA","NA","193604","2138","10281","10251","44183","10281","42366","2138","New experiment","1","702","1","yes","1024"
"black","100","100","1544","1544","#ffffff","3","legacy","Young","legacy","legacy","0","uniform","f","1","1","undefined","undefined","0","0","0","0","0","0","0","35","0","35","0","6","0","NA","0","NA","0","94","0","94","6","NA","51","35","NA","0","94","5","0","0","0","0","15","0","Thu Mar 10 18:49:52 2022","The main experiment item","yes","","assignment1_final.osexp","D:\UoM\course\semester2\experimental_psychology\assignment1","no","mono","no","18","no","#000000","no","yes","768","legacy","6","15","0","D:/UoM/course/semester2/experimental_psychology/assignment1/10977385.csv","legacy","Lentiform Loewenfeld","3.3.11","yes","0","f","f","space","space","1544","1544","180190","3504","2","legacy","1024","2","48000","-16","experiment","Billy","0","even","44182","113562","180193","NA","NA","5896","47707","111488","115553","178544","182329","195354","NA","NA","NA","NA","2136","196907","NA","197907","195355","NA","111489","178546","NA","NA","195355","2138","10281","10251","44183","10281","42366","2138","New experiment","1","1544","1","yes","1024"
"blue","100","100","1400","1400","#ffffff","3","legacy","Other","legacy","legacy","0","uniform","j","1","1","undefined","undefined","0","0","0","0","0","0","0","35","0","35","0","7","0","NA","0","NA","0","95","0","95","7","NA","51","35","NA","0","95","5","0","0","0","0","15","0","Thu Mar 10 18:49:52 2022","The main experiment item","yes","","assignment1_final.osexp","D:\UoM\course\semester2\experimental_psychology\assignment1","no","mono","no","18","no","#000000","no","yes","768","legacy","7","15","0","D:/UoM/course/semester2/experimental_psychology/assignment1/10977385.csv","legacy","Lentiform Loewenfeld","3.3.11","yes","0","j","j","space","space","1400","1400","180190","3504","2","legacy","1024","2","48000","-16","experiment","Themselves","0","even","44182","113562","180193","NA","NA","5896","47707","111488","115553","178544","182329","197950","NA","NA","NA","NA","2136","199358","NA","200358","197951","NA","111489","178546","NA","NA","197951","2138","10281","10251","44183","10281","42366","2138","New experiment","1","1400","1","yes","1024"
