"Color","acc","accuracy","average_response_time","avg_rt","background","block","canvas_backend","cate","clock_backend","color_backend","compensation","coordinates","corr_resp","correct","correct_Inst_test","correct_resp","correct_skip","correct_test_resp","count_Inst1","count_Inst2","count_Inst3","count_Inst4","count_Inst5","count_Inst_test","count_block1_loop","count_block1_seq","count_block2_loop","count_block2_seq","count_block3_loop","count_block3_seq","count_block4_loop","count_block4_seq","count_block5_loop","count_block5_seq","count_experiment","count_fdb","count_getting_started","count_logger","count_mix_skt","count_mix_skt_swp","count_name_stim","count_prn_skt","count_prn_skt_swp","count_repeat_test","count_resp","count_skip","count_test_block","count_test_loop","count_test_resp","count_test_resp_seq","count_test_seq","count_welcome","datetime","description","disable_garbage_collection","empty_column","experiment_file","experiment_path","font_bold","font_family","font_italic","font_size","font_underline","foreground","form_clicks","fullscreen","height","keyboard_backend","live_row","live_row_test_block","live_row_test_loop","logfile","mouse_backend","opensesame_codename","opensesame_version","psychopy_waitblanking","repeat_cycle","response","response_Inst1","response_Inst2","response_Inst3","response_Inst4","response_Inst5","response_Inst_test","response_resp","response_skip","response_test_resp","response_time","response_time_Inst1","response_time_Inst2","response_time_Inst3","response_time_Inst4","response_time_Inst5","response_time_Inst_test","response_time_resp","response_time_skip","response_time_test_resp","round_decimals","sampler_backend","sound_buf_size","sound_channels","sound_freq","sound_sample_size","start","sti","subject_nr","subject_parity","time_Inst1","time_Inst2","time_Inst3","time_Inst4","time_Inst5","time_Inst_test","time_block1_loop","time_block1_seq","time_block2_loop","time_block2_seq","time_block3_loop","time_block3_seq","time_block4_loop","time_block4_seq","time_block5_loop","time_block5_seq","time_experiment","time_fdb","time_getting_started","time_logger","time_mix_skt","time_mix_skt_swp","time_name_stim","time_prn_skt","time_prn_skt_swp","time_repeat_test","time_resp","time_skip","time_test_block","time_test_loop","time_test_resp","time_test_resp_seq","time_test_seq","time_welcome","title","total_correct","total_response_time","total_responses","uniform_coordinates","width"
"NA","100","100","7848.099600000144","7848.099600000144","#ffffff","0","psycho","Young","psycho","psycho","0","uniform","f","1","undefined","1","undefined","NA","0","0","0","0","0","0","0","NA","0","NA","0","NA","0","NA","0","NA","0","0","0","0","NA","NA","0","NA","NA","0","0","5","0","0","0","0","0","0","Thu Mar 10 18:22:22 2022","The main experiment item","yes","","assignment1_final.osexp","D:\UoM\course\semester2\experimental_psychology\assignment1","no","mono","no","18","no","#000000","no","no","768","psycho","0","0","0","D:/UoM/course/semester2/experimental_psychology/assignment1\quickrun.csv","psycho","Lentiform Loewenfeld","3.3.11","yes","0","f","NA","NA","NA","NA","NA","space","f","space","NA","3232.861700000285","NA","NA","NA","NA","NA","6907.825800000865","3232.861700000285","14383.232600000156","NA","2","psycho","1024","2","48000","-16","experiment","Jimmy","999","odd","NA","NA","NA","NA","NA","12105.502599999454","NA","NA","NA","NA","NA","NA","NA","NA","NA","NA","6150.441199999477","23856.38469999958","NA","24856.432100000347","NA","NA","20606.026599999495","NA","NA","NA","20606.10639999959","6172.05980000017","20584.443300000203","20556.122199999663","NA","20584.06070000001","20600.35929999958","6171.670400000039","New experiment","1","23544.298800000433","3","yes","1024"
"NA","100","100","1177.299199999652","1177.299199999652","#ffffff","0","psycho","Young","psycho","psycho","0","uniform","f","1","undefined","1","undefined","NA","0","0","0","0","0","0","0","NA","0","NA","0","NA","0","NA","0","NA","0","1","0","1","NA","NA","1","NA","NA","0","1","5","0","0","0","0","1","0","Thu Mar 10 18:22:22 2022","The main experiment item","yes","","assignment1_final.osexp","D:\UoM\course\semester2\experimental_psychology\assignment1","no","mono","no","18","no","#000000","no","no","768","psycho","1","1","0","D:/UoM/course/semester2/experimental_psychology/assignment1\quickrun.csv","psycho","Lentiform Loewenfeld","3.3.11","yes","0","f","NA","NA","NA","NA","NA","space","f","space","NA","1177.299199999652","NA","NA","NA","NA","NA","6907.825800000865","1177.299199999652","14383.232600000156","NA","2","psycho","1024","2","48000","-16","experiment","Julie","999","odd","NA","NA","NA","NA","NA","12105.502599999454","NA","NA","NA","NA","NA","NA","NA","NA","NA","NA","6150.441199999477","26139.87139999972","NA","27140.09989999977","NA","NA","24934.537600000112","NA","NA","NA","24934.619300000122","6172.05980000017","20584.443300000203","20556.122199999663","NA","20584.06070000001","24930.92059999981","6171.670400000039","New experiment","1","1177.299199999652","1","yes","1024"
"NA","100","100","648.5730000003969","648.5730000003969","#ffffff","0","psycho","Young","psycho","psycho","0","uniform","f","1","undefined","1","undefined","NA","0","0","0","0","0","0","0","NA","0","NA","0","NA","0","NA","0","NA","0","2","0","2","NA","NA","2","NA","NA","0","2","5","0","0","0","0","2","0","Thu Mar 10 18:22:22 2022","The main experiment item","yes","","assignment1_final.osexp","D:\UoM\course\semester2\experimental_psychology\assignment1","no","mono","no","18","no","#000000","no","no","768","psycho","2","2","0","D:/UoM/course/semester2/experimental_psychology/assignment1\quickrun.csv","psycho","Lentiform Loewenfeld","3.3.11","yes","0","f","NA","NA","NA","NA","NA","space","f","space","NA","648.5730000003969","NA","NA","NA","NA","NA","6907.825800000865","648.5730000003969","14383.232600000156","NA","2","psycho","1024","2","48000","-16","experiment","Jimmy","999","odd","NA","NA","NA","NA","NA","12105.502599999454","NA","NA","NA","NA","NA","NA","NA","NA","NA","NA","6150.441199999477","27875.30229999993","NA","28875.970199999756","NA","NA","27215.23840000009","NA","NA","NA","27215.30729999995","6172.05980000017","20584.443300000203","20556.122199999663","NA","20584.06070000001","27211.732499999925","6171.670400000039","New experiment","1","648.5730000003969","1","yes","1024"
"NA","100","100","951.9293000003017","951.9293000003017","#ffffff","0","psycho","Young","psycho","psycho","0","uniform","f","1","undefined","1","undefined","NA","0","0","0","0","0","0","0","NA","0","NA","0","NA","0","NA","0","NA","0","3","0","3","NA","NA","3","NA","NA","0","3","5","0","0","0","0","3","0","Thu Mar 10 18:22:22 2022","The main experiment item","yes","","assignment1_final.osexp","D:\UoM\course\semester2\experimental_psychology\assignment1","no","mono","no","18","no","#000000","no","no","768","psycho","3","3","0","D:/UoM/course/semester2/experimental_psychology/assignment1\quickrun.csv","psycho","Lentiform Loewenfeld","3.3.11","yes","0","f","NA","NA","NA","NA","NA","space","f","space","NA","951.9293000003017","NA","NA","NA","NA","NA","6907.825800000865","951.9293000003017","14383.232600000156","NA","2","psycho","1024","2","48000","-16","experiment","Aiden","999","odd","NA","NA","NA","NA","NA","12105.502599999454","NA","NA","NA","NA","NA","NA","NA","NA","NA","NA","6150.441199999477","29920.393600000352","NA","30921.553099999983","NA","NA","28956.68949999981","NA","NA","NA","28956.95539999997","6172.05980000017","20584.443300000203","20556.122199999663","NA","20584.06070000001","28938.06399999994","6171.670400000039","New experiment","1","951.9293000003017","1","yes","1024"
"NA","100","100","644.7837000005165","644.7837000005165","#ffffff","0","psycho","Young","psycho","psycho","0","uniform","f","1","undefined","1","undefined","NA","0","0","0","0","0","0","0","NA","0","NA","0","NA","0","NA","0","NA","0","4","0","4","NA","NA","4","NA","NA","0","4","5","0","0","0","0","4","0","Thu Mar 10 18:22:22 2022","The main experiment item","yes","","assignment1_final.osexp","D:\UoM\course\semester2\experimental_psychology\assignment1","no","mono","no","18","no","#000000","no","no","768","psycho","4","4","0","D:/UoM/course/semester2/experimental_psychology/assignment1\quickrun.csv","psycho","Lentiform Loewenfeld","3.3.11","yes","0","f","NA","NA","NA","NA","NA","space","f","space","NA","644.7837000005165","NA","NA","NA","NA","NA","6907.825800000865","644.7837000005165","14383.232600000156","NA","2","psycho","1024","2","48000","-16","experiment","Aiden","999","odd","NA","NA","NA","NA","NA","12105.502599999454","NA","NA","NA","NA","NA","NA","NA","NA","NA","NA","6150.441199999477","31662.81809999964","NA","32662.608499999806","NA","NA","31006.79570000011","NA","NA","NA","31006.8825999997","6172.05980000017","20584.443300000203","20556.122199999663","NA","20584.06070000001","30994.191099999625","6171.670400000039","New experiment","1","644.7837000005165","1","yes","1024"
"NA","100","100","851.8979999998919","851.8979999998919","#ffffff","0","psycho","Old","psycho","psycho","0","uniform","j","1","undefined","1","undefined","NA","0","0","0","0","0","0","0","NA","0","NA","0","NA","0","NA","0","NA","0","5","0","5","NA","NA","5","NA","NA","0","5","5","0","0","0","0","5","0","Thu Mar 10 18:22:22 2022","The main experiment item","yes","","assignment1_final.osexp","D:\UoM\course\semester2\experimental_psychology\assignment1","no","mono","no","18","no","#000000","no","no","768","psycho","5","5","0","D:/UoM/course/semester2/experimental_psychology/assignment1\quickrun.csv","psycho","Lentiform Loewenfeld","3.3.11","yes","0","j","NA","NA","NA","NA","NA","space","j","space","NA","851.8979999998919","NA","NA","NA","NA","NA","6907.825800000865","851.8979999998919","14383.232600000156","NA","2","psycho","1024","2","48000","-16","experiment","Arthur","999","odd","NA","NA","NA","NA","NA","12105.502599999454","NA","NA","NA","NA","NA","NA","NA","NA","NA","NA","6150.441199999477","33603.53870000017","NA","34603.89740000028","NA","NA","32740.198399999827","NA","NA","NA","32740.27649999971","6172.05980000017","20584.443300000203","20556.122199999663","NA","20584.06070000001","32734.762899999623","6171.670400000039","New experiment","1","851.8979999998919","1","yes","1024"
"NA","100","100","527.0166000000245","527.0166000000245","#ffffff","0","psycho","Old","psycho","psycho","0","uniform","j","1","undefined","1","undefined","NA","0","0","0","0","0","0","0","NA","0","NA","0","NA","0","NA","0","NA","0","6","0","6","NA","NA","6","NA","NA","0","6","5","0","0","0","0","6","0","Thu Mar 10 18:22:22 2022","The main experiment item","yes","","assignment1_final.osexp","D:\UoM\course\semester2\experimental_psychology\assignment1","no","mono","no","18","no","#000000","no","no","768","psycho","6","6","0","D:/UoM/course/semester2/experimental_psychology/assignment1\quickrun.csv","psycho","Lentiform Loewenfeld","3.3.11","yes","0","j","NA","NA","NA","NA","NA","space","j","space","NA","527.0166000000245","NA","NA","NA","NA","NA","6907.825800000865","527.0166000000245","14383.232600000156","NA","2","psycho","1024","2","48000","-16","experiment","Otto","999","odd","NA","NA","NA","NA","NA","12105.502599999454","NA","NA","NA","NA","NA","NA","NA","NA","NA","NA","6150.441199999477","35246.08110000008","NA","36246.40410000029","NA","NA","34707.32560000033","NA","NA","NA","34707.56410000013","6172.05980000017","20584.443300000203","20556.122199999663","NA","20584.06070000001","34686.95320000006","6171.670400000039","New experiment","1","527.0166000000245","1","yes","1024"
"NA","100","100","569.4985000000088","569.4985000000088","#ffffff","0","psycho","Old","psycho","psycho","0","uniform","j","1","undefined","1","undefined","NA","0","0","0","0","0","0","0","NA","0","NA","0","NA","0","NA","0","NA","0","7","0","7","NA","NA","7","NA","NA","0","7","5","0","0","0","0","7","0","Thu Mar 10 18:22:22 2022","The main experiment item","yes","","assignment1_final.osexp","D:\UoM\course\semester2\experimental_psychology\assignment1","no","mono","no","18","no","#000000","no","no","768","psycho","7","7","0","D:/UoM/course/semester2/experimental_psychology/assignment1\quickrun.csv","psycho","Lentiform Loewenfeld","3.3.11","yes","0","j","NA","NA","NA","NA","NA","space","j","space","NA","569.4985000000088","NA","NA","NA","NA","NA","6907.825800000865","569.4985000000088","14383.232600000156","NA","2","psycho","1024","2","48000","-16","experiment","Otto","999","odd","NA","NA","NA","NA","NA","12105.502599999454","NA","NA","NA","NA","NA","NA","NA","NA","NA","NA","6150.441199999477","36904.835000000276","NA","37908.98229999948","NA","NA","36323.85400000021","NA","NA","NA","36323.94060000024","6172.05980000017","20584.443300000203","20556.122199999663","NA","20584.06070000001","36317.37900000007","6171.670400000039","New experiment","1","569.4985000000088","1","yes","1024"
"NA","100","100","767.8323000000091","767.8323000000091","#ffffff","0","psycho","Young","psycho","psycho","0","uniform","f","1","undefined","1","undefined","NA","0","0","0","0","0","0","0","NA","0","NA","0","NA","0","NA","0","NA","0","8","0","8","NA","NA","8","NA","NA","0","8","5","0","0","0","0","8","0","Thu Mar 10 18:22:22 2022","The main experiment item","yes","","assignment1_final.osexp","D:\UoM\course\semester2\experimental_psychology\assignment1","no","mono","no","18","no","#000000","no","no","768","psycho","8","8","0","D:/UoM/course/semester2/experimental_psychology/assignment1\quickrun.csv","psycho","Lentiform Loewenfeld","3.3.11","yes","0","f","NA","NA","NA","NA","NA","space","f","space","NA","767.8323000000091","NA","NA","NA","NA","NA","6907.825800000865","767.8323000000091","14383.232600000156","NA","2","psycho","1024","2","48000","-16","experiment","Hayley","999","odd","NA","NA","NA","NA","NA","12105.502599999454","NA","NA","NA","NA","NA","NA","NA","NA","NA","NA","6150.441199999477","38769.70379999966","NA","39770.34689999982","NA","NA","37990.61979999988","NA","NA","NA","37990.88870000014","6172.05980000017","20584.443300000203","20556.122199999663","NA","20584.06070000001","37970.87550000015","6171.670400000039","New experiment","1","767.8323000000091","1","yes","1024"
"NA","100","100","1024.1182999998273","1024.1182999998273","#ffffff","0","psycho","Young","psycho","psycho","0","uniform","f","1","undefined","1","undefined","NA","0","0","0","0","0","0","0","NA","0","NA","0","NA","0","NA","0","NA","0","9","0","9","NA","NA","9","NA","NA","0","9","5","0","0","0","0","9","0","Thu Mar 10 18:22:22 2022","The main experiment item","yes","","assignment1_final.osexp","D:\UoM\course\semester2\experimental_psychology\assignment1","no","mono","no","18","no","#000000","no","no","768","psycho","9","9","0","D:/UoM/course/semester2/experimental_psychology/assignment1\quickrun.csv","psycho","Lentiform Loewenfeld","3.3.11","yes","0","f","NA","NA","NA","NA","NA","space","f","space","NA","1024.1182999998273","NA","NA","NA","NA","NA","6907.825800000865","1024.1182999998273","14383.232600000156","NA","2","psycho","1024","2","48000","-16","experiment","Julie","999","odd","NA","NA","NA","NA","NA","12105.502599999454","NA","NA","NA","NA","NA","NA","NA","NA","NA","NA","6150.441199999477","40907.683800000086","NA","41907.84739999981","NA","NA","39857.81870000028","NA","NA","NA","39857.96219999975","6172.05980000017","20584.443300000203","20556.122199999663","NA","20584.06070000001","39847.37479999967","6171.670400000039","New experiment","1","1024.1182999998273","1","yes","1024"
"NA","100","100","804.821699999593","804.821699999593","#ffffff","0","psycho","Old","psycho","psycho","0","uniform","j","1","undefined","1","undefined","NA","0","0","0","0","0","0","0","NA","0","NA","0","NA","0","NA","0","NA","0","10","0","10","NA","NA","10","NA","NA","0","10","5","0","0","0","0","10","0","Thu Mar 10 18:22:22 2022","The main experiment item","yes","","assignment1_final.osexp","D:\UoM\course\semester2\experimental_psychology\assignment1","no","mono","no","18","no","#000000","no","no","768","psycho","10","10","0","D:/UoM/course/semester2/experimental_psychology/assignment1\quickrun.csv","psycho","Lentiform Loewenfeld","3.3.11","yes","0","j","NA","NA","NA","NA","NA","space","j","space","NA","804.821699999593","NA","NA","NA","NA","NA","6907.825800000865","804.821699999593","14383.232600000156","NA","2","psycho","1024","2","48000","-16","experiment","Albert","999","odd","NA","NA","NA","NA","NA","12105.502599999454","NA","NA","NA","NA","NA","NA","NA","NA","NA","NA","6150.441199999477","42799.66729999978","NA","43799.04119999992","NA","NA","41983.3665999995","NA","NA","NA","41983.44290000023","6172.05980000017","20584.443300000203","20556.122199999663","NA","20584.06070000001","41979.82930000035","6171.670400000039","New experiment","1","804.821699999593","1","yes","1024"
"NA","100","100","694.3412000000535","694.3412000000535","#ffffff","0","psycho","Old","psycho","psycho","0","uniform","j","1","undefined","1","undefined","NA","0","0","0","0","0","0","0","NA","0","NA","0","NA","0","NA","0","NA","0","11","0","11","NA","NA","11","NA","NA","0","11","5","0","0","0","0","11","0","Thu Mar 10 18:22:22 2022","The main experiment item","yes","","assignment1_final.osexp","D:\UoM\course\semester2\experimental_psychology\assignment1","no","mono","no","18","no","#000000","no","no","768","psycho","11","11","0","D:/UoM/course/semester2/experimental_psychology/assignment1\quickrun.csv","psycho","Lentiform Loewenfeld","3.3.11","yes","0","j","NA","NA","NA","NA","NA","space","j","space","NA","694.3412000000535","NA","NA","NA","NA","NA","6907.825800000865","694.3412000000535","14383.232600000156","NA","2","psycho","1024","2","48000","-16","experiment","Arthur","999","odd","NA","NA","NA","NA","NA","12105.502599999454","NA","NA","NA","NA","NA","NA","NA","NA","NA","NA","6150.441199999477","44580.44820000032","NA","45581.00999999988","NA","NA","43874.842700000045","NA","NA","NA","43874.929800000245","6172.05980000017","20584.443300000203","20556.122199999663","NA","20584.06070000001","43867.96739999954","6171.670400000039","New experiment","1","694.3412000000535","1","yes","1024"
"NA","100","100","715.6940000004397","715.6940000004397","#ffffff","0","psycho","Old","psycho","psycho","0","uniform","j","1","undefined","1","undefined","NA","0","0","0","0","0","0","0","NA","0","NA","0","NA","0","NA","0","NA","0","12","0","12","NA","NA","12","NA","NA","0","12","5","0","0","0","0","12","0","Thu Mar 10 18:22:22 2022","The main experiment item","yes","","assignment1_final.osexp","D:\UoM\course\semester2\experimental_psychology\assignment1","no","mono","no","18","no","#000000","no","no","768","psycho","12","12","0","D:/UoM/course/semester2/experimental_psychology/assignment1\quickrun.csv","psycho","Lentiform Loewenfeld","3.3.11","yes","0","j","NA","NA","NA","NA","NA","space","j","space","NA","715.6940000004397","NA","NA","NA","NA","NA","6907.825800000865","715.6940000004397","14383.232600000156","NA","2","psycho","1024","2","48000","-16","experiment","Albert","999","odd","NA","NA","NA","NA","NA","12105.502599999454","NA","NA","NA","NA","NA","NA","NA","NA","NA","NA","6150.441199999477","46385.40439999997","NA","47385.10849999966","NA","NA","45658.218900000065","NA","NA","NA","45658.30019999976","6172.05980000017","20584.443300000203","20556.122199999663","NA","20584.06070000001","45651.632099999915","6171.670400000039","New experiment","1","715.6940000004397","1","yes","1024"
"NA","100","100","759.0020000006916","759.0020000006916","#ffffff","0","psycho","Old","psycho","psycho","0","uniform","j","1","undefined","1","undefined","NA","0","0","0","0","0","0","0","NA","0","NA","0","NA","0","NA","0","NA","0","13","0","13","NA","NA","13","NA","NA","0","13","5","0","0","0","0","13","0","Thu Mar 10 18:22:22 2022","The main experiment item","yes","","assignment1_final.osexp","D:\UoM\course\semester2\experimental_psychology\assignment1","no","mono","no","18","no","#000000","no","no","768","psycho","13","13","0","D:/UoM/course/semester2/experimental_psychology/assignment1\quickrun.csv","psycho","Lentiform Loewenfeld","3.3.11","yes","0","j","NA","NA","NA","NA","NA","space","j","space","NA","759.0020000006916","NA","NA","NA","NA","NA","6907.825800000865","759.0020000006916","14383.232600000156","NA","2","psycho","1024","2","48000","-16","experiment","Wilfred","999","odd","NA","NA","NA","NA","NA","12105.502599999454","NA","NA","NA","NA","NA","NA","NA","NA","NA","NA","6150.441199999477","48228.98069999974","NA","49229.81379999965","NA","NA","47458.161599999585","NA","NA","NA","47458.275299999514","6172.05980000017","20584.443300000203","20556.122199999663","NA","20584.06070000001","47446.917700000085","6171.670400000039","New experiment","1","759.0020000006916","1","yes","1024"
"NA","100","100","677.8892000002088","677.8892000002088","#ffffff","0","psycho","Old","psycho","psycho","0","uniform","j","1","undefined","1","undefined","NA","0","0","0","0","0","0","0","NA","0","NA","0","NA","0","NA","0","NA","0","14","0","14","NA","NA","14","NA","NA","0","14","5","0","0","0","0","14","0","Thu Mar 10 18:22:22 2022","The main experiment item","yes","","assignment1_final.osexp","D:\UoM\course\semester2\experimental_psychology\assignment1","no","mono","no","18","no","#000000","no","no","768","psycho","14","14","0","D:/UoM/course/semester2/experimental_psychology/assignment1\quickrun.csv","psycho","Lentiform Loewenfeld","3.3.11","yes","0","j","NA","NA","NA","NA","NA","space","j","space","NA","677.8892000002088","NA","NA","NA","NA","NA","6907.825800000865","677.8892000002088","14383.232600000156","NA","2","psycho","1024","2","48000","-16","experiment","Wilfred","999","odd","NA","NA","NA","NA","NA","12105.502599999454","NA","NA","NA","NA","NA","NA","NA","NA","NA","NA","6150.441199999477","49997.77089999952","NA","50998.80839999969","NA","NA","49308.212199999616","NA","NA","NA","49308.3201999998","6172.05980000017","20584.443300000203","20556.122199999663","NA","20584.06070000001","49302.25390000032","6171.670400000039","New experiment","1","677.8892000002088","1","yes","1024"
"NA","100","100","599.2287999997643","599.2287999997643","#ffffff","0","psycho","Young","psycho","psycho","0","uniform","f","1","undefined","1","undefined","NA","0","0","0","0","0","0","0","NA","0","NA","0","NA","0","NA","0","NA","0","15","0","15","NA","NA","15","NA","NA","0","15","5","0","0","0","0","15","0","Thu Mar 10 18:22:22 2022","The main experiment item","yes","","assignment1_final.osexp","D:\UoM\course\semester2\experimental_psychology\assignment1","no","mono","no","18","no","#000000","no","no","768","psycho","15","15","0","D:/UoM/course/semester2/experimental_psychology/assignment1\quickrun.csv","psycho","Lentiform Loewenfeld","3.3.11","yes","0","f","NA","NA","NA","NA","NA","space","f","space","NA","599.2287999997643","NA","NA","NA","NA","NA","6907.825800000865","599.2287999997643","14383.232600000156","NA","2","psycho","1024","2","48000","-16","experiment","Hayley","999","odd","NA","NA","NA","NA","NA","12105.502599999454","NA","NA","NA","NA","NA","NA","NA","NA","NA","NA","6150.441199999477","51685.725999999704","NA","52685.290800000075","NA","NA","51074.91269999991","NA","NA","NA","51075.00100000016","6172.05980000017","20584.443300000203","20556.122199999663","NA","20584.06070000001","51071.10939999984","6171.670400000039","New experiment","1","599.2287999997643","1","yes","1024"
"NA","0","0","1419.9958999997762","1419.9958999997762","#ffffff","0","psycho","Young","psycho","psycho","0","uniform","f","0","undefined","0","undefined","undefined","1","0","0","0","0","0","0","NA","0","NA","0","NA","0","NA","0","NA","0","16","0","16","NA","NA","16","NA","NA","1","16","5","1","0","1","1","16","0","Thu Mar 10 18:22:22 2022","The main experiment item","yes","","assignment1_final.osexp","D:\UoM\course\semester2\experimental_psychology\assignment1","no","mono","no","18","no","#000000","no","no","768","psycho","0","0","1","D:/UoM/course/semester2/experimental_psychology/assignment1\quickrun.csv","psycho","Lentiform Loewenfeld","3.3.11","yes","0","j","f","NA","NA","NA","NA","space","j","space","q","1367.5622999999177","3353.0719999998837","NA","NA","NA","NA","6907.825800000865","1367.5622999999177","14383.232600000156","1472.4294999996346","2","psycho","1024","2","48000","-16","experiment","Aiden","999","odd","52758.867599999576","NA","NA","NA","NA","12105.502599999454","NA","NA","NA","NA","NA","NA","NA","NA","NA","NA","6150.441199999477","59075.47760000034","NA","60075.565500000266","NA","NA","57692.47639999958","NA","NA","NA","57692.755000000034","6172.05980000017","57660.0540999998","20556.122199999663","56112.66549999982","57659.92840000035","57674.406199999794","6171.670400000039","New experiment","0","2839.9917999995523","2","yes","1024"
"NA","100","100","1018.0090000003474","1018.0090000003474","#ffffff","0","psycho","Old","psycho","psycho","0","uniform","j","1","undefined","1","undefined","undefined","1","0","0","0","0","0","0","NA","0","NA","0","NA","0","NA","0","NA","0","17","0","17","NA","NA","17","NA","NA","1","17","5","1","0","1","1","17","0","Thu Mar 10 18:22:22 2022","The main experiment item","yes","","assignment1_final.osexp","D:\UoM\course\semester2\experimental_psychology\assignment1","no","mono","no","18","no","#000000","no","no","768","psycho","1","1","1","D:/UoM/course/semester2/experimental_psychology/assignment1\quickrun.csv","psycho","Lentiform Loewenfeld","3.3.11","yes","0","j","f","NA","NA","NA","NA","space","j","space","q","1018.0090000003474","3353.0719999998837","NA","NA","NA","NA","6907.825800000865","1018.0090000003474","14383.232600000156","1472.4294999996346","2","psycho","1024","2","48000","-16","experiment","Albert","999","odd","52758.867599999576","NA","NA","NA","NA","12105.502599999454","NA","NA","NA","NA","NA","NA","NA","NA","NA","NA","6150.441199999477","61175.19540000012","NA","62176.03229999986","NA","NA","60141.25689999946","NA","NA","NA","60141.333499999746","6172.05980000017","57660.0540999998","20556.122199999663","56112.66549999982","57659.92840000035","60137.79280000017","6171.670400000039","New experiment","1","1018.0090000003474","1","yes","1024"
"NA","100","100","543.6707999997452","543.6707999997452","#ffffff","0","psycho","Young","psycho","psycho","0","uniform","f","1","undefined","1","undefined","undefined","1","0","0","0","0","0","0","NA","0","NA","0","NA","0","NA","0","NA","0","18","0","18","NA","NA","18","NA","NA","1","18","5","1","0","1","1","18","0","Thu Mar 10 18:22:22 2022","The main experiment item","yes","","assignment1_final.osexp","D:\UoM\course\semester2\experimental_psychology\assignment1","no","mono","no","18","no","#000000","no","no","768","psycho","2","2","1","D:/UoM/course/semester2/experimental_psychology/assignment1\quickrun.csv","psycho","Lentiform Loewenfeld","3.3.11","yes","0","f","f","NA","NA","NA","NA","space","f","space","q","543.6707999997452","3353.0719999998837","NA","NA","NA","NA","6907.825800000865","543.6707999997452","14383.232600000156","1472.4294999996346","2","psycho","1024","2","48000","-16","experiment","Jimmy","999","odd","52758.867599999576","NA","NA","NA","NA","12105.502599999454","NA","NA","NA","NA","NA","NA","NA","NA","NA","NA","6150.441199999477","62814.91949999963","NA","63815.020099999856","NA","NA","62259.70419999976","NA","NA","NA","62259.79619999998","6172.05980000017","57660.0540999998","20556.122199999663","56112.66549999982","57659.92840000035","62247.927499999605","6171.670400000039","New experiment","1","543.6707999997452","1","yes","1024"
"NA","100","100","1640.0227000003724","1640.0227000003724","#ffffff","0","psycho","Old","psycho","psycho","0","uniform","j","1","undefined","1","undefined","undefined","1","0","0","0","0","0","0","NA","0","NA","0","NA","0","NA","0","NA","0","19","0","19","NA","NA","19","NA","NA","1","19","5","1","0","1","1","19","0","Thu Mar 10 18:22:22 2022","The main experiment item","yes","","assignment1_final.osexp","D:\UoM\course\semester2\experimental_psychology\assignment1","no","mono","no","18","no","#000000","no","no","768","psycho","3","3","1","D:/UoM/course/semester2/experimental_psychology/assignment1\quickrun.csv","psycho","Lentiform Loewenfeld","3.3.11","yes","0","j","f","NA","NA","NA","NA","space","j","space","q","1640.0227000003724","3353.0719999998837","NA","NA","NA","NA","6907.825800000865","1640.0227000003724","14383.232600000156","1472.4294999996346","2","psycho","1024","2","48000","-16","experiment","Arthur","999","odd","52758.867599999576","NA","NA","NA","NA","12105.502599999454","NA","NA","NA","NA","NA","NA","NA","NA","NA","NA","6150.441199999477","65559.43759999992","NA","66560.04500000017","NA","NA","63893.73539999997","NA","NA","NA","63893.81669999966","6172.05980000017","57660.0540999998","20556.122199999663","56112.66549999982","57659.92840000035","63884.799999999814","6171.670400000039","New experiment","1","1640.0227000003724","1","yes","1024"
"NA","100","100","621.8930999994045","621.8930999994045","#ffffff","0","psycho","Old","psycho","psycho","0","uniform","j","1","undefined","1","undefined","undefined","1","0","0","0","0","0","0","NA","0","NA","0","NA","0","NA","0","NA","0","20","0","20","NA","NA","20","NA","NA","1","20","5","1","0","1","1","20","0","Thu Mar 10 18:22:22 2022","The main experiment item","yes","","assignment1_final.osexp","D:\UoM\course\semester2\experimental_psychology\assignment1","no","mono","no","18","no","#000000","no","no","768","psycho","4","4","1","D:/UoM/course/semester2/experimental_psychology/assignment1\quickrun.csv","psycho","Lentiform Loewenfeld","3.3.11","yes","0","j","f","NA","NA","NA","NA","space","j","space","q","621.8930999994045","3353.0719999998837","NA","NA","NA","NA","6907.825800000865","621.8930999994045","14383.232600000156","1472.4294999996346","2","psycho","1024","2","48000","-16","experiment","Wilfred","999","odd","52758.867599999576","NA","NA","NA","NA","12105.502599999454","NA","NA","NA","NA","NA","NA","NA","NA","NA","NA","6150.441199999477","67258.49250000011","NA","68259.0694999999","NA","NA","66625.24389999999","NA","NA","NA","66625.32060000012","6172.05980000017","57660.0540999998","20556.122199999663","56112.66549999982","57659.92840000035","66621.69939999966","6171.670400000039","New experiment","1","621.8930999994045","1","yes","1024"
"NA","100","100","553.0134000000544","553.0134000000544","#ffffff","0","psycho","Old","psycho","psycho","0","uniform","j","1","undefined","1","undefined","undefined","1","0","0","0","0","0","0","NA","0","NA","0","NA","0","NA","0","NA","0","21","0","21","NA","NA","21","NA","NA","1","21","5","1","0","1","1","21","0","Thu Mar 10 18:22:22 2022","The main experiment item","yes","","assignment1_final.osexp","D:\UoM\course\semester2\experimental_psychology\assignment1","no","mono","no","18","no","#000000","no","no","768","psycho","5","5","1","D:/UoM/course/semester2/experimental_psychology/assignment1\quickrun.csv","psycho","Lentiform Loewenfeld","3.3.11","yes","0","j","f","NA","NA","NA","NA","space","j","space","q","553.0134000000544","3353.0719999998837","NA","NA","NA","NA","6907.825800000865","553.0134000000544","14383.232600000156","1472.4294999996346","2","psycho","1024","2","48000","-16","experiment","Otto","999","odd","52758.867599999576","NA","NA","NA","NA","12105.502599999454","NA","NA","NA","NA","NA","NA","NA","NA","NA","NA","6150.441199999477","68907.8585999996","NA","69908.20850000001","NA","NA","68343.64749999986","NA","NA","NA","68343.74190000017","6172.05980000017","57660.0540999998","20556.122199999663","56112.66549999982","57659.92840000035","68328.83399999992","6171.670400000039","New experiment","1","553.0134000000544","1","yes","1024"
"NA","100","100","519.1028999997798","519.1028999997798","#ffffff","0","psycho","Young","psycho","psycho","0","uniform","f","1","undefined","1","undefined","undefined","1","0","0","0","0","0","0","NA","0","NA","0","NA","0","NA","0","NA","0","22","0","22","NA","NA","22","NA","NA","1","22","5","1","0","1","1","22","0","Thu Mar 10 18:22:22 2022","The main experiment item","yes","","assignment1_final.osexp","D:\UoM\course\semester2\experimental_psychology\assignment1","no","mono","no","18","no","#000000","no","no","768","psycho","6","6","1","D:/UoM/course/semester2/experimental_psychology/assignment1\quickrun.csv","psycho","Lentiform Loewenfeld","3.3.11","yes","0","f","f","NA","NA","NA","NA","space","f","space","q","519.1028999997798","3353.0719999998837","NA","NA","NA","NA","6907.825800000865","519.1028999997798","14383.232600000156","1472.4294999996346","2","psycho","1024","2","48000","-16","experiment","Julie","999","odd","52758.867599999576","NA","NA","NA","NA","12105.502599999454","NA","NA","NA","NA","NA","NA","NA","NA","NA","NA","6150.441199999477","70523.56169999985","NA","71523.92309999959","NA","NA","69993.10549999973","NA","NA","NA","69993.20350000016","6172.05980000017","57660.0540999998","20556.122199999663","56112.66549999982","57659.92840000035","69979.16650000025","6171.670400000039","New experiment","1","519.1028999997798","1","yes","1024"
"NA","100","100","499.40870000045106","499.40870000045106","#ffffff","0","psycho","Young","psycho","psycho","0","uniform","f","1","undefined","1","undefined","undefined","1","0","0","0","0","0","0","NA","0","NA","0","NA","0","NA","0","NA","0","23","0","23","NA","NA","23","NA","NA","1","23","5","1","0","1","1","23","0","Thu Mar 10 18:22:22 2022","The main experiment item","yes","","assignment1_final.osexp","D:\UoM\course\semester2\experimental_psychology\assignment1","no","mono","no","18","no","#000000","no","no","768","psycho","7","7","1","D:/UoM/course/semester2/experimental_psychology/assignment1\quickrun.csv","psycho","Lentiform Loewenfeld","3.3.11","yes","0","f","f","NA","NA","NA","NA","space","f","space","q","499.40870000045106","3353.0719999998837","NA","NA","NA","NA","6907.825800000865","499.40870000045106","14383.232600000156","1472.4294999996346","2","psycho","1024","2","48000","-16","experiment","Hayley","999","odd","52758.867599999576","NA","NA","NA","NA","12105.502599999454","NA","NA","NA","NA","NA","NA","NA","NA","NA","NA","6150.441199999477","72130.81439999951","NA","73131.43909999962","NA","NA","71609.83570000008","NA","NA","NA","71609.9250999996","6172.05980000017","57660.0540999998","20556.122199999663","56112.66549999982","57659.92840000035","71596.56480000012","6171.670400000039","New experiment","1","499.40870000045106","1","yes","1024"
"NA","100","100","518.6879999992088","518.6879999992088","#ffffff","0","psycho","Old","psycho","psycho","0","uniform","j","1","undefined","1","undefined","undefined","1","0","0","0","0","0","0","NA","0","NA","0","NA","0","NA","0","NA","0","24","0","24","NA","NA","24","NA","NA","1","24","5","1","0","1","1","24","0","Thu Mar 10 18:22:22 2022","The main experiment item","yes","","assignment1_final.osexp","D:\UoM\course\semester2\experimental_psychology\assignment1","no","mono","no","18","no","#000000","no","no","768","psycho","8","8","1","D:/UoM/course/semester2/experimental_psychology/assignment1\quickrun.csv","psycho","Lentiform Loewenfeld","3.3.11","yes","0","j","f","NA","NA","NA","NA","space","j","space","q","518.6879999992088","3353.0719999998837","NA","NA","NA","NA","6907.825800000865","518.6879999992088","14383.232600000156","1472.4294999996346","2","psycho","1024","2","48000","-16","experiment","Wilfred","999","odd","52758.867599999576","NA","NA","NA","NA","12105.502599999454","NA","NA","NA","NA","NA","NA","NA","NA","NA","NA","6150.441199999477","73757.08779999969","NA","74757.46359999993","NA","NA","73227.13870000007","NA","NA","NA","73227.39720000027","6172.05980000017","57660.0540999998","20556.122199999663","56112.66549999982","57659.92840000035","73209.36840000012","6171.670400000039","New experiment","1","518.6879999992088","1","yes","1024"
"NA","0","0","1443.3561000005284","1443.3561000005284","#ffffff","0","psycho","Old","psycho","psycho","0","uniform","j","0","undefined","0","undefined","undefined","1","0","0","0","0","0","0","NA","0","NA","0","NA","0","NA","0","NA","0","25","0","25","NA","NA","25","NA","NA","1","25","5","1","0","1","1","25","0","Thu Mar 10 18:22:22 2022","The main experiment item","yes","","assignment1_final.osexp","D:\UoM\course\semester2\experimental_psychology\assignment1","no","mono","no","18","no","#000000","no","no","768","psycho","9","9","1","D:/UoM/course/semester2/experimental_psychology/assignment1\quickrun.csv","psycho","Lentiform Loewenfeld","3.3.11","yes","0","f","f","NA","NA","NA","NA","space","f","space","q","1443.3561000005284","3353.0719999998837","NA","NA","NA","NA","6907.825800000865","1443.3561000005284","14383.232600000156","1472.4294999996346","2","psycho","1024","2","48000","-16","experiment","Albert","999","odd","52758.867599999576","NA","NA","NA","NA","12105.502599999454","NA","NA","NA","NA","NA","NA","NA","NA","NA","NA","6150.441199999477","76293.78499999984","NA","77293.88870000002","NA","NA","74826.98739999978","NA","NA","NA","74827.07539999956","6172.05980000017","57660.0540999998","20556.122199999663","56112.66549999982","57659.92840000035","74818.27659999998","6171.670400000039","New experiment","0","1443.3561000005284","1","yes","1024"
"NA","100","100","473.45709999989776","473.45709999989776","#ffffff","0","psycho","Young","psycho","psycho","0","uniform","f","1","undefined","1","undefined","undefined","1","0","0","0","0","0","0","NA","0","NA","0","NA","0","NA","0","NA","0","26","0","26","NA","NA","26","NA","NA","1","26","5","1","0","1","1","26","0","Thu Mar 10 18:22:22 2022","The main experiment item","yes","","assignment1_final.osexp","D:\UoM\course\semester2\experimental_psychology\assignment1","no","mono","no","18","no","#000000","no","no","768","psycho","10","10","1","D:/UoM/course/semester2/experimental_psychology/assignment1\quickrun.csv","psycho","Lentiform Loewenfeld","3.3.11","yes","0","f","f","NA","NA","NA","NA","space","f","space","q","473.45709999989776","3353.0719999998837","NA","NA","NA","NA","6907.825800000865","473.45709999989776","14383.232600000156","1472.4294999996346","2","psycho","1024","2","48000","-16","experiment","Hayley","999","odd","52758.867599999576","NA","NA","NA","NA","12105.502599999454","NA","NA","NA","NA","NA","NA","NA","NA","NA","NA","6150.441199999477","77853.87809999974","NA","78853.90610000014","NA","NA","77368.3777999995","NA","NA","NA","77368.45319999976","6172.05980000017","57660.0540999998","20556.122199999663","56112.66549999982","57659.92840000035","77364.09410000034","6171.670400000039","New experiment","1","473.45709999989776","1","yes","1024"
"NA","100","100","512.399600000208","512.399600000208","#ffffff","0","psycho","Young","psycho","psycho","0","uniform","f","1","undefined","1","undefined","undefined","1","0","0","0","0","0","0","NA","0","NA","0","NA","0","NA","0","NA","0","27","0","27","NA","NA","27","NA","NA","1","27","5","1","0","1","1","27","0","Thu Mar 10 18:22:22 2022","The main experiment item","yes","","assignment1_final.osexp","D:\UoM\course\semester2\experimental_psychology\assignment1","no","mono","no","18","no","#000000","no","no","768","psycho","11","11","1","D:/UoM/course/semester2/experimental_psychology/assignment1\quickrun.csv","psycho","Lentiform Loewenfeld","3.3.11","yes","0","f","f","NA","NA","NA","NA","space","f","space","q","512.399600000208","3353.0719999998837","NA","NA","NA","NA","6907.825800000865","512.399600000208","14383.232600000156","1472.4294999996346","2","psycho","1024","2","48000","-16","experiment","Jimmy","999","odd","52758.867599999576","NA","NA","NA","NA","12105.502599999454","NA","NA","NA","NA","NA","NA","NA","NA","NA","NA","6150.441199999477","79451.41309999963","NA","80452.03649999984","NA","NA","78927.26949999997","NA","NA","NA","78927.35999999968","6172.05980000017","57660.0540999998","20556.122199999663","56112.66549999982","57659.92840000035","78916.20609999972","6171.670400000039","New experiment","1","512.399600000208","1","yes","1024"
"NA","100","100","893.4540999998862","893.4540999998862","#ffffff","0","psycho","Young","psycho","psycho","0","uniform","f","1","undefined","1","undefined","undefined","1","0","0","0","0","0","0","NA","0","NA","0","NA","0","NA","0","NA","0","28","0","28","NA","NA","28","NA","NA","1","28","5","1","0","1","1","28","0","Thu Mar 10 18:22:22 2022","The main experiment item","yes","","assignment1_final.osexp","D:\UoM\course\semester2\experimental_psychology\assignment1","no","mono","no","18","no","#000000","no","no","768","psycho","12","12","1","D:/UoM/course/semester2/experimental_psychology/assignment1\quickrun.csv","psycho","Lentiform Loewenfeld","3.3.11","yes","0","f","f","NA","NA","NA","NA","space","f","space","q","893.4540999998862","3353.0719999998837","NA","NA","NA","NA","6907.825800000865","893.4540999998862","14383.232600000156","1472.4294999996346","2","psycho","1024","2","48000","-16","experiment","Aiden","999","odd","52758.867599999576","NA","NA","NA","NA","12105.502599999454","NA","NA","NA","NA","NA","NA","NA","NA","NA","NA","6150.441199999477","81432.41979999948","NA","82432.2118","NA","NA","80527.23009999955","NA","NA","NA","80527.30400000018","6172.05980000017","57660.0540999998","20556.122199999663","56112.66549999982","57659.92840000035","80522.69040000011","6171.670400000039","New experiment","1","893.4540999998862","1","yes","1024"
"NA","100","100","607.7625999996671","607.7625999996671","#ffffff","0","psycho","Old","psycho","psycho","0","uniform","j","1","undefined","1","undefined","undefined","1","0","0","0","0","0","0","NA","0","NA","0","NA","0","NA","0","NA","0","29","0","29","NA","NA","29","NA","NA","1","29","5","1","0","1","1","29","0","Thu Mar 10 18:22:22 2022","The main experiment item","yes","","assignment1_final.osexp","D:\UoM\course\semester2\experimental_psychology\assignment1","no","mono","no","18","no","#000000","no","no","768","psycho","13","13","1","D:/UoM/course/semester2/experimental_psychology/assignment1\quickrun.csv","psycho","Lentiform Loewenfeld","3.3.11","yes","0","j","f","NA","NA","NA","NA","space","j","space","q","607.7625999996671","3353.0719999998837","NA","NA","NA","NA","6907.825800000865","607.7625999996671","14383.232600000156","1472.4294999996346","2","psycho","1024","2","48000","-16","experiment","Otto","999","odd","52758.867599999576","NA","NA","NA","NA","12105.502599999454","NA","NA","NA","NA","NA","NA","NA","NA","NA","NA","6150.441199999477","83130.33619999987","NA","84130.61949999974","NA","NA","82511.29310000033","NA","NA","NA","82511.54150000002","6172.05980000017","57660.0540999998","20556.122199999663","56112.66549999982","57659.92840000035","82493.76080000002","6171.670400000039","New experiment","1","607.7625999996671","1","yes","1024"
"NA","0","0","615.7352999998693","615.7352999998693","#ffffff","0","psycho","Old","psycho","psycho","0","uniform","j","0","undefined","0","undefined","undefined","1","0","0","0","0","0","0","NA","0","NA","0","NA","0","NA","0","NA","0","30","0","30","NA","NA","30","NA","NA","1","30","5","1","0","1","1","30","0","Thu Mar 10 18:22:22 2022","The main experiment item","yes","","assignment1_final.osexp","D:\UoM\course\semester2\experimental_psychology\assignment1","no","mono","no","18","no","#000000","no","no","768","psycho","14","14","1","D:/UoM/course/semester2/experimental_psychology/assignment1\quickrun.csv","psycho","Lentiform Loewenfeld","3.3.11","yes","0","f","f","NA","NA","NA","NA","space","f","space","q","615.7352999998693","3353.0719999998837","NA","NA","NA","NA","6907.825800000865","615.7352999998693","14383.232600000156","1472.4294999996346","2","psycho","1024","2","48000","-16","experiment","Arthur","999","odd","52758.867599999576","NA","NA","NA","NA","12105.502599999454","NA","NA","NA","NA","NA","NA","NA","NA","NA","NA","6150.441199999477","84844.56679999948","NA","85844.5615999999","NA","NA","84211.55689999978","NA","NA","NA","84211.63979999983","6172.05980000017","57660.0540999998","20556.122199999663","56112.66549999982","57659.92840000035","84202.95249999981","6171.670400000039","New experiment","0","615.7352999998693","1","yes","1024"
"NA","100","100","479.10049999973853","479.10049999973853","#ffffff","0","psycho","Young","psycho","psycho","0","uniform","f","1","undefined","1","undefined","undefined","1","0","0","0","0","0","0","NA","0","NA","0","NA","0","NA","0","NA","0","31","0","31","NA","NA","31","NA","NA","1","31","5","1","0","1","1","31","0","Thu Mar 10 18:22:22 2022","The main experiment item","yes","","assignment1_final.osexp","D:\UoM\course\semester2\experimental_psychology\assignment1","no","mono","no","18","no","#000000","no","no","768","psycho","15","15","1","D:/UoM/course/semester2/experimental_psychology/assignment1\quickrun.csv","psycho","Lentiform Loewenfeld","3.3.11","yes","0","f","f","NA","NA","NA","NA","space","f","space","q","479.10049999973853","3353.0719999998837","NA","NA","NA","NA","6907.825800000865","479.10049999973853","14383.232600000156","1472.4294999996346","2","psycho","1024","2","48000","-16","experiment","Julie","999","odd","52758.867599999576","NA","NA","NA","NA","12105.502599999454","NA","NA","NA","NA","NA","NA","NA","NA","NA","NA","6150.441199999477","86418.59029999978","NA","87419.21029999957","NA","NA","85927.84349999965","NA","NA","NA","85927.92019999979","6172.05980000017","57660.0540999998","20556.122199999663","56112.66549999982","57659.92840000035","85914.99039999963","6171.670400000039","New experiment","1","479.10049999973853","1","yes","1024"
"NA","100","100","2676.8033499997764","2676.8033499997764","#ffffff","1","psycho","Old","psycho","psycho","0","uniform","j","1","undefined","1","undefined","undefined","1","0","0","0","0","0","0","0","0","NA","0","NA","0","NA","0","NA","0","32","0","32","NA","NA","32","NA","NA","1","32","5","1","0","1","1","31","0","Thu Mar 10 18:22:22 2022","The main experiment item","yes","","assignment1_final.osexp","D:\UoM\course\semester2\experimental_psychology\assignment1","no","mono","no","18","no","#000000","no","no","768","psycho","0","15","1","D:/UoM/course/semester2/experimental_psychology/assignment1\quickrun.csv","psycho","Lentiform Loewenfeld","3.3.11","yes","0","j","space","NA","NA","NA","NA","space","j","space","space","2956.36540000033","3755.3134999998147","NA","NA","NA","NA","6907.825800000865","2956.36540000033","14383.232600000156","2397.241299999223","2","psycho","1024","2","48000","-16","experiment","Wilber","999","odd","87494.77240000034","NA","NA","NA","NA","12105.502599999454","93695.09180000023","93710.45520000007","NA","NA","NA","NA","NA","NA","NA","NA","6150.441199999477","96711.75810000022","NA","97711.5733999999","NA","NA","93728.29960000035","NA","NA","NA","93728.55049999998","6172.05980000017","57660.0540999998","20556.122199999663","91250.84880000031","57659.92840000035","85914.99039999963","6171.670400000039","New experiment","1","5353.606699999553","2","yes","1024"
"NA","100","100","861.9619000001112","861.9619000001112","#ffffff","1","psycho","Old","psycho","psycho","0","uniform","j","1","undefined","1","undefined","undefined","1","0","0","0","0","0","0","1","0","NA","0","NA","0","NA","0","NA","0","33","0","33","NA","NA","33","NA","NA","1","33","5","1","0","1","1","31","0","Thu Mar 10 18:22:22 2022","The main experiment item","yes","","assignment1_final.osexp","D:\UoM\course\semester2\experimental_psychology\assignment1","no","mono","no","18","no","#000000","no","no","768","psycho","1","15","1","D:/UoM/course/semester2/experimental_psychology/assignment1\quickrun.csv","psycho","Lentiform Loewenfeld","3.3.11","yes","0","j","space","NA","NA","NA","NA","space","j","space","space","861.9619000001112","3755.3134999998147","NA","NA","NA","NA","6907.825800000865","861.9619000001112","14383.232600000156","2397.241299999223","2","psycho","1024","2","48000","-16","experiment","Cecil","999","odd","87494.77240000034","NA","NA","NA","NA","12105.502599999454","93695.09180000023","97785.39860000001","NA","NA","NA","NA","NA","NA","NA","NA","6150.441199999477","98669.53279999961","NA","99670.28579999987","NA","NA","97795.53570000007","NA","NA","NA","97795.70289999992","6172.05980000017","57660.0540999998","20556.122199999663","91250.84880000031","57659.92840000035","85914.99039999963","6171.670400000039","New experiment","1","861.9619000001112","1","yes","1024"
"NA","0","0","567.3523999994359","567.3523999994359","#ffffff","1","psycho","Young","psycho","psycho","0","uniform","f","0","undefined","0","undefined","undefined","1","0","0","0","0","0","0","2","0","NA","0","NA","0","NA","0","NA","0","34","0","34","NA","NA","34","NA","NA","1","34","5","1","0","1","1","31","0","Thu Mar 10 18:22:22 2022","The main experiment item","yes","","assignment1_final.osexp","D:\UoM\course\semester2\experimental_psychology\assignment1","no","mono","no","18","no","#000000","no","no","768","psycho","2","15","1","D:/UoM/course/semester2/experimental_psychology/assignment1\quickrun.csv","psycho","Lentiform Loewenfeld","3.3.11","yes","0","j","space","NA","NA","NA","NA","space","j","space","space","567.3523999994359","3755.3134999998147","NA","NA","NA","NA","6907.825800000865","567.3523999994359","14383.232600000156","2397.241299999223","2","psycho","1024","2","48000","-16","experiment","Brad","999","odd","87494.77240000034","NA","NA","NA","NA","12105.502599999454","93695.09180000023","99741.50559999997","NA","NA","NA","NA","NA","NA","NA","NA","6150.441199999477","100324.78459999948","NA","101325.30640000004","NA","NA","99745.8919999999","NA","NA","NA","99745.9686000002","6172.05980000017","57660.0540999998","20556.122199999663","91250.84880000031","57659.92840000035","85914.99039999963","6171.670400000039","New experiment","0","567.3523999994359","1","yes","1024"
"NA","100","100","715.7168999992864","715.7168999992864","#ffffff","1","psycho","Young","psycho","psycho","0","uniform","f","1","undefined","1","undefined","undefined","1","0","0","0","0","0","0","3","0","NA","0","NA","0","NA","0","NA","0","35","0","35","NA","NA","35","NA","NA","1","35","5","1","0","1","1","31","0","Thu Mar 10 18:22:22 2022","The main experiment item","yes","","assignment1_final.osexp","D:\UoM\course\semester2\experimental_psychology\assignment1","no","mono","no","18","no","#000000","no","no","768","psycho","3","15","1","D:/UoM/course/semester2/experimental_psychology/assignment1\quickrun.csv","psycho","Lentiform Loewenfeld","3.3.11","yes","0","f","space","NA","NA","NA","NA","space","f","space","space","715.7168999992864","3755.3134999998147","NA","NA","NA","NA","6907.825800000865","715.7168999992864","14383.232600000156","2397.241299999223","2","psycho","1024","2","48000","-16","experiment","Joey","999","odd","87494.77240000034","NA","NA","NA","NA","12105.502599999454","93695.09180000023","101396.8205000001","NA","NA","NA","NA","NA","NA","NA","NA","6150.441199999477","102139.29569999981","NA","103138.90749999974","NA","NA","101412.29629999999","NA","NA","NA","101412.39630000018","6172.05980000017","57660.0540999998","20556.122199999663","91250.84880000031","57659.92840000035","85914.99039999963","6171.670400000039","New experiment","1","715.7168999992864","1","yes","1024"
"NA","100","100","568.2609999994456","568.2609999994456","#ffffff","1","psycho","Old","psycho","psycho","0","uniform","j","1","undefined","1","undefined","undefined","1","0","0","0","0","0","0","4","0","NA","0","NA","0","NA","0","NA","0","36","0","36","NA","NA","36","NA","NA","1","36","5","1","0","1","1","31","0","Thu Mar 10 18:22:22 2022","The main experiment item","yes","","assignment1_final.osexp","D:\UoM\course\semester2\experimental_psychology\assignment1","no","mono","no","18","no","#000000","no","no","768","psycho","4","15","1","D:/UoM/course/semester2/experimental_psychology/assignment1\quickrun.csv","psycho","Lentiform Loewenfeld","3.3.11","yes","0","j","space","NA","NA","NA","NA","space","j","space","space","568.2609999994456","3755.3134999998147","NA","NA","NA","NA","6907.825800000865","568.2609999994456","14383.232600000156","2397.241299999223","2","psycho","1024","2","48000","-16","experiment","Walter","999","odd","87494.77240000034","NA","NA","NA","NA","12105.502599999454","93695.09180000023","103209.6988000003","NA","NA","NA","NA","NA","NA","NA","NA","6150.441199999477","103809.54279999969","NA","104809.8186999996","NA","NA","103229.41420000006","NA","NA","NA","103229.66410000026","6172.05980000017","57660.0540999998","20556.122199999663","91250.84880000031","57659.92840000035","85914.99039999963","6171.670400000039","New experiment","1","568.2609999994456","1","yes","1024"
"NA","100","100","544.8641000002681","544.8641000002681","#ffffff","1","psycho","Young","psycho","psycho","0","uniform","f","1","undefined","1","undefined","undefined","1","0","0","0","0","0","0","5","0","NA","0","NA","0","NA","0","NA","0","37","0","37","NA","NA","37","NA","NA","1","37","5","1","0","1","1","31","0","Thu Mar 10 18:22:22 2022","The main experiment item","yes","","assignment1_final.osexp","D:\UoM\course\semester2\experimental_psychology\assignment1","no","mono","no","18","no","#000000","no","no","768","psycho","5","15","1","D:/UoM/course/semester2/experimental_psychology/assignment1\quickrun.csv","psycho","Lentiform Loewenfeld","3.3.11","yes","0","f","space","NA","NA","NA","NA","space","f","space","space","544.8641000002681","3755.3134999998147","NA","NA","NA","NA","6907.825800000865","544.8641000002681","14383.232600000156","2397.241299999223","2","psycho","1024","2","48000","-16","experiment","Billy","999","odd","87494.77240000034","NA","NA","NA","NA","12105.502599999454","93695.09180000023","104871.79019999984","NA","NA","NA","NA","NA","NA","NA","NA","6150.441199999477","105435.73490000017","NA","106436.0214999997","NA","NA","104879.08830000015","NA","NA","NA","104879.16539999969","6172.05980000017","57660.0540999998","20556.122199999663","91250.84880000031","57659.92840000035","85914.99039999963","6171.670400000039","New experiment","1","544.8641000002681","1","yes","1024"
"NA","100","100","830.9159000000363","830.9159000000363","#ffffff","1","psycho","Old","psycho","psycho","0","uniform","j","1","undefined","1","undefined","undefined","1","0","0","0","0","0","0","6","0","NA","0","NA","0","NA","0","NA","0","38","0","38","NA","NA","38","NA","NA","1","38","5","1","0","1","1","31","0","Thu Mar 10 18:22:22 2022","The main experiment item","yes","","assignment1_final.osexp","D:\UoM\course\semester2\experimental_psychology\assignment1","no","mono","no","18","no","#000000","no","no","768","psycho","6","15","1","D:/UoM/course/semester2/experimental_psychology/assignment1\quickrun.csv","psycho","Lentiform Loewenfeld","3.3.11","yes","0","j","space","NA","NA","NA","NA","space","j","space","space","830.9159000000363","3755.3134999998147","NA","NA","NA","NA","6907.825800000865","830.9159000000363","14383.232600000156","2397.241299999223","2","psycho","1024","2","48000","-16","experiment","Donald","999","odd","87494.77240000034","NA","NA","NA","NA","12105.502599999454","93695.09180000023","106508.80549999965","NA","NA","NA","NA","NA","NA","NA","NA","6150.441199999477","107355.44620000018","NA","108354.86909999963","NA","NA","106513.09029999992","NA","NA","NA","106513.17209999979","6172.05980000017","57660.0540999998","20556.122199999663","91250.84880000031","57659.92840000035","85914.99039999963","6171.670400000039","New experiment","1","830.9159000000363","1","yes","1024"
"NA","100","100","537.455300000147","537.455300000147","#ffffff","1","psycho","Young","psycho","psycho","0","uniform","f","1","undefined","1","undefined","undefined","1","0","0","0","0","0","0","7","0","NA","0","NA","0","NA","0","NA","0","39","0","39","NA","NA","39","NA","NA","1","39","5","1","0","1","1","31","0","Thu Mar 10 18:22:22 2022","The main experiment item","yes","","assignment1_final.osexp","D:\UoM\course\semester2\experimental_psychology\assignment1","no","mono","no","18","no","#000000","no","no","768","psycho","7","15","1","D:/UoM/course/semester2/experimental_psychology/assignment1\quickrun.csv","psycho","Lentiform Loewenfeld","3.3.11","yes","0","f","space","NA","NA","NA","NA","space","f","space","space","537.455300000147","3755.3134999998147","NA","NA","NA","NA","6907.825800000865","537.455300000147","14383.232600000156","2397.241299999223","2","psycho","1024","2","48000","-16","experiment","Erik","999","odd","87494.77240000034","NA","NA","NA","NA","12105.502599999454","93695.09180000023","108425.70849999992","NA","NA","NA","NA","NA","NA","NA","NA","6150.441199999477","108978.79490000014","NA","109979.66339999948","NA","NA","108429.57579999985","NA","NA","NA","108429.65189999995","6172.05980000017","57660.0540999998","20556.122199999663","91250.84880000031","57659.92840000035","85914.99039999963","6171.670400000039","New experiment","1","537.455300000147","1","yes","1024"
"NA","100","100","900.8115999995498","900.8115999995498","#ffffff","1","psycho","Old","psycho","psycho","0","uniform","j","1","undefined","1","undefined","undefined","1","0","0","0","0","0","0","8","0","NA","0","NA","0","NA","0","NA","0","40","0","40","NA","NA","40","NA","NA","1","40","5","1","0","1","1","31","0","Thu Mar 10 18:22:22 2022","The main experiment item","yes","","assignment1_final.osexp","D:\UoM\course\semester2\experimental_psychology\assignment1","no","mono","no","18","no","#000000","no","no","768","psycho","8","15","1","D:/UoM/course/semester2/experimental_psychology/assignment1\quickrun.csv","psycho","Lentiform Loewenfeld","3.3.11","yes","0","j","space","NA","NA","NA","NA","space","j","space","space","900.8115999995498","3755.3134999998147","NA","NA","NA","NA","6907.825800000865","900.8115999995498","14383.232600000156","2397.241299999223","2","psycho","1024","2","48000","-16","experiment","Mortimer","999","odd","87494.77240000034","NA","NA","NA","NA","12105.502599999454","93695.09180000023","110050.8504999998","NA","NA","NA","NA","NA","NA","NA","NA","6150.441199999477","110974.91429999992","NA","111974.65899999952","NA","NA","110062.75189999997","NA","NA","NA","110062.8372000001","6172.05980000017","57660.0540999998","20556.122199999663","91250.84880000031","57659.92840000035","85914.99039999963","6171.670400000039","New experiment","1","900.8115999995498","1","yes","1024"
"NA","100","100","1150.6153000000195","1150.6153000000195","#ffffff","1","psycho","Young","psycho","psycho","0","uniform","f","1","undefined","1","undefined","undefined","1","0","0","0","0","0","0","9","0","NA","0","NA","0","NA","0","NA","0","41","0","41","NA","NA","41","NA","NA","1","41","5","1","0","1","1","31","0","Thu Mar 10 18:22:22 2022","The main experiment item","yes","","assignment1_final.osexp","D:\UoM\course\semester2\experimental_psychology\assignment1","no","mono","no","18","no","#000000","no","no","768","psycho","9","15","1","D:/UoM/course/semester2/experimental_psychology/assignment1\quickrun.csv","psycho","Lentiform Loewenfeld","3.3.11","yes","0","f","space","NA","NA","NA","NA","space","f","space","space","1150.6153000000195","3755.3134999998147","NA","NA","NA","NA","6907.825800000865","1150.6153000000195","14383.232600000156","2397.241299999223","2","psycho","1024","2","48000","-16","experiment","Chad","999","odd","87494.77240000034","NA","NA","NA","NA","12105.502599999454","93695.09180000023","112045.29749999984","NA","NA","NA","NA","NA","NA","NA","NA","6150.441199999477","113229.91530000036","NA","114229.74590000013","NA","NA","112063.05049999992","NA","NA","NA","112063.27739999961","6172.05980000017","57660.0540999998","20556.122199999663","91250.84880000031","57659.92840000035","85914.99039999963","6171.670400000039","New experiment","1","1150.6153000000195","1","yes","1024"
"NA","0","0","750.3950999998779","750.3950999998779","#ffffff","1","psycho","Old","psycho","psycho","0","uniform","j","0","undefined","0","undefined","undefined","1","0","0","0","0","0","0","10","0","NA","0","NA","0","NA","0","NA","0","42","0","42","NA","NA","42","NA","NA","1","42","5","1","0","1","1","31","0","Thu Mar 10 18:22:22 2022","The main experiment item","yes","","assignment1_final.osexp","D:\UoM\course\semester2\experimental_psychology\assignment1","no","mono","no","18","no","#000000","no","no","768","psycho","10","15","1","D:/UoM/course/semester2/experimental_psychology/assignment1\quickrun.csv","psycho","Lentiform Loewenfeld","3.3.11","yes","0","f","space","NA","NA","NA","NA","space","f","space","space","750.3950999998779","3755.3134999998147","NA","NA","NA","NA","6907.825800000865","750.3950999998779","14383.232600000156","2397.241299999223","2","psycho","1024","2","48000","-16","experiment","Edgar","999","odd","87494.77240000034","NA","NA","NA","NA","12105.502599999454","93695.09180000023","114292.06119999981","NA","NA","NA","NA","NA","NA","NA","NA","6150.441199999477","115056.93619999965","NA","116057.71559999994","NA","NA","114295.25889999968","NA","NA","NA","114295.33989999982","6172.05980000017","57660.0540999998","20556.122199999663","91250.84880000031","57659.92840000035","85914.99039999963","6171.670400000039","New experiment","0","750.3950999998779","1","yes","1024"
"NA","100","100","706.5186999998405","706.5186999998405","#ffffff","1","psycho","Old","psycho","psycho","0","uniform","j","1","undefined","1","undefined","undefined","1","0","0","0","0","0","0","11","0","NA","0","NA","0","NA","0","NA","0","43","0","43","NA","NA","43","NA","NA","1","43","5","1","0","1","1","31","0","Thu Mar 10 18:22:22 2022","The main experiment item","yes","","assignment1_final.osexp","D:\UoM\course\semester2\experimental_psychology\assignment1","no","mono","no","18","no","#000000","no","no","768","psycho","11","15","1","D:/UoM/course/semester2/experimental_psychology/assignment1\quickrun.csv","psycho","Lentiform Loewenfeld","3.3.11","yes","0","j","space","NA","NA","NA","NA","space","j","space","space","706.5186999998405","3755.3134999998147","NA","NA","NA","NA","6907.825800000865","706.5186999998405","14383.232600000156","2397.241299999223","2","psycho","1024","2","48000","-16","experiment","Walter","999","odd","87494.77240000034","NA","NA","NA","NA","12105.502599999454","93695.09180000023","116127.44569999995","NA","NA","NA","NA","NA","NA","NA","NA","6150.441199999477","116866.3703000002","NA","117866.74849999964","NA","NA","116147.64519999971","NA","NA","NA","116147.91659999991","6172.05980000017","57660.0540999998","20556.122199999663","91250.84880000031","57659.92840000035","85914.99039999963","6171.670400000039","New experiment","1","706.5186999998405","1","yes","1024"
"NA","100","100","649.6784000000771","649.6784000000771","#ffffff","1","psycho","Old","psycho","psycho","0","uniform","j","1","undefined","1","undefined","undefined","1","0","0","0","0","0","0","12","0","NA","0","NA","0","NA","0","NA","0","44","0","44","NA","NA","44","NA","NA","1","44","5","1","0","1","1","31","0","Thu Mar 10 18:22:22 2022","The main experiment item","yes","","assignment1_final.osexp","D:\UoM\course\semester2\experimental_psychology\assignment1","no","mono","no","18","no","#000000","no","no","768","psycho","12","15","1","D:/UoM/course/semester2/experimental_psychology/assignment1\quickrun.csv","psycho","Lentiform Loewenfeld","3.3.11","yes","0","j","space","NA","NA","NA","NA","space","j","space","space","649.6784000000771","3755.3134999998147","NA","NA","NA","NA","6907.825800000865","649.6784000000771","14383.232600000156","2397.241299999223","2","psycho","1024","2","48000","-16","experiment","Mortimer","999","odd","87494.77240000034","NA","NA","NA","NA","12105.502599999454","93695.09180000023","117937.5799999998","NA","NA","NA","NA","NA","NA","NA","NA","6150.441199999477","118608.57459999988","NA","119608.22199999983","NA","NA","117947.43180000022","NA","NA","NA","117947.52900000004","6172.05980000017","57660.0540999998","20556.122199999663","91250.84880000031","57659.92840000035","85914.99039999963","6171.670400000039","New experiment","1","649.6784000000771","1","yes","1024"
"NA","100","100","1019.7723000001133","1019.7723000001133","#ffffff","1","psycho","Old","psycho","psycho","0","uniform","j","1","undefined","1","undefined","undefined","1","0","0","0","0","0","0","13","0","NA","0","NA","0","NA","0","NA","0","45","0","45","NA","NA","45","NA","NA","1","45","5","1","0","1","1","31","0","Thu Mar 10 18:22:22 2022","The main experiment item","yes","","assignment1_final.osexp","D:\UoM\course\semester2\experimental_psychology\assignment1","no","mono","no","18","no","#000000","no","no","768","psycho","13","15","1","D:/UoM/course/semester2/experimental_psychology/assignment1\quickrun.csv","psycho","Lentiform Loewenfeld","3.3.11","yes","0","j","space","NA","NA","NA","NA","space","j","space","space","1019.7723000001133","3755.3134999998147","NA","NA","NA","NA","6907.825800000865","1019.7723000001133","14383.232600000156","2397.241299999223","2","psycho","1024","2","48000","-16","experiment","Wilber","999","odd","87494.77240000034","NA","NA","NA","NA","12105.502599999454","93695.09180000023","119673.65609999979","NA","NA","NA","NA","NA","NA","NA","NA","6150.441199999477","120713.97909999997","NA","121713.77519999987","NA","NA","119680.87079999986","NA","NA","NA","119680.98490000011","6172.05980000017","57660.0540999998","20556.122199999663","91250.84880000031","57659.92840000035","85914.99039999963","6171.670400000039","New experiment","1","1019.7723000001133","1","yes","1024"
"NA","100","100","546.533099999564","546.533099999564","#ffffff","1","psycho","Young","psycho","psycho","0","uniform","f","1","undefined","1","undefined","undefined","1","0","0","0","0","0","0","14","0","NA","0","NA","0","NA","0","NA","0","46","0","46","NA","NA","46","NA","NA","1","46","5","1","0","1","1","31","0","Thu Mar 10 18:22:22 2022","The main experiment item","yes","","assignment1_final.osexp","D:\UoM\course\semester2\experimental_psychology\assignment1","no","mono","no","18","no","#000000","no","no","768","psycho","14","15","1","D:/UoM/course/semester2/experimental_psychology/assignment1\quickrun.csv","psycho","Lentiform Loewenfeld","3.3.11","yes","0","f","space","NA","NA","NA","NA","space","f","space","space","546.533099999564","3755.3134999998147","NA","NA","NA","NA","6907.825800000865","546.533099999564","14383.232600000156","2397.241299999223","2","psycho","1024","2","48000","-16","experiment","Brad","999","odd","87494.77240000034","NA","NA","NA","NA","12105.502599999454","93695.09180000023","121799.04989999978","NA","NA","NA","NA","NA","NA","NA","NA","6150.441199999477","122363.79849999957","NA","123363.91589999948","NA","NA","121802.67050000021","NA","NA","NA","121802.75119999988","6172.05980000017","57660.0540999998","20556.122199999663","91250.84880000031","57659.92840000035","85914.99039999963","6171.670400000039","New experiment","1","546.533099999564","1","yes","1024"
"NA","100","100","590.9965999999258","590.9965999999258","#ffffff","1","psycho","Young","psycho","psycho","0","uniform","f","1","undefined","1","undefined","undefined","1","0","0","0","0","0","0","15","0","NA","0","NA","0","NA","0","NA","0","47","0","47","NA","NA","47","NA","NA","1","47","5","1","0","1","1","31","0","Thu Mar 10 18:22:22 2022","The main experiment item","yes","","assignment1_final.osexp","D:\UoM\course\semester2\experimental_psychology\assignment1","no","mono","no","18","no","#000000","no","no","768","psycho","15","15","1","D:/UoM/course/semester2/experimental_psychology/assignment1\quickrun.csv","psycho","Lentiform Loewenfeld","3.3.11","yes","0","f","space","NA","NA","NA","NA","space","f","space","space","590.9965999999258","3755.3134999998147","NA","NA","NA","NA","6907.825800000865","590.9965999999258","14383.232600000156","2397.241299999223","2","psycho","1024","2","48000","-16","experiment","Mike","999","odd","87494.77240000034","NA","NA","NA","NA","12105.502599999454","93695.09180000023","123426.73319999994","NA","NA","NA","NA","NA","NA","NA","NA","6150.441199999477","124033.0785999995","NA","125036.88409999995","NA","NA","123430.92220000018","NA","NA","NA","123431.00219999996","6172.05980000017","57660.0540999998","20556.122199999663","91250.84880000031","57659.92840000035","85914.99039999963","6171.670400000039","New experiment","1","590.9965999999258","1","yes","1024"
"NA","100","100","508.4968000000954","508.4968000000954","#ffffff","1","psycho","Young","psycho","psycho","0","uniform","f","1","undefined","1","undefined","undefined","1","0","0","0","0","0","0","16","0","NA","0","NA","0","NA","0","NA","0","48","0","48","NA","NA","48","NA","NA","1","48","5","1","0","1","1","31","0","Thu Mar 10 18:22:22 2022","The main experiment item","yes","","assignment1_final.osexp","D:\UoM\course\semester2\experimental_psychology\assignment1","no","mono","no","18","no","#000000","no","no","768","psycho","16","15","1","D:/UoM/course/semester2/experimental_psychology/assignment1\quickrun.csv","psycho","Lentiform Loewenfeld","3.3.11","yes","0","f","space","NA","NA","NA","NA","space","f","space","space","508.4968000000954","3755.3134999998147","NA","NA","NA","NA","6907.825800000865","508.4968000000954","14383.232600000156","2397.241299999223","2","psycho","1024","2","48000","-16","experiment","Erik","999","odd","87494.77240000034","NA","NA","NA","NA","12105.502599999454","93695.09180000023","125108.64599999969","NA","NA","NA","NA","NA","NA","NA","NA","6150.441199999477","125634.62770000024","NA","126634.81899999987","NA","NA","125114.1931000002","NA","NA","NA","125114.27999999978","6172.05980000017","57660.0540999998","20556.122199999663","91250.84880000031","57659.92840000035","85914.99039999963","6171.670400000039","New experiment","1","508.4968000000954","1","yes","1024"
"NA","100","100","697.3363999995927","697.3363999995927","#ffffff","1","psycho","Old","psycho","psycho","0","uniform","j","1","undefined","1","undefined","undefined","1","0","0","0","0","0","0","17","0","NA","0","NA","0","NA","0","NA","0","49","0","49","NA","NA","49","NA","NA","1","49","5","1","0","1","1","31","0","Thu Mar 10 18:22:22 2022","The main experiment item","yes","","assignment1_final.osexp","D:\UoM\course\semester2\experimental_psychology\assignment1","no","mono","no","18","no","#000000","no","no","768","psycho","17","15","1","D:/UoM/course/semester2/experimental_psychology/assignment1\quickrun.csv","psycho","Lentiform Loewenfeld","3.3.11","yes","0","j","space","NA","NA","NA","NA","space","j","space","space","697.3363999995927","3755.3134999998147","NA","NA","NA","NA","6907.825800000865","697.3363999995927","14383.232600000156","2397.241299999223","2","psycho","1024","2","48000","-16","experiment","Mortimer","999","odd","87494.77240000034","NA","NA","NA","NA","12105.502599999454","93695.09180000023","126706.09280000007","NA","NA","NA","NA","NA","NA","NA","NA","6150.441199999477","127423.68830000033","NA","128423.85269999977","NA","NA","126714.5746999995","NA","NA","NA","126714.66210000016","6172.05980000017","57660.0540999998","20556.122199999663","91250.84880000031","57659.92840000035","85914.99039999963","6171.670400000039","New experiment","1","697.3363999995927","1","yes","1024"
"NA","0","0","613.7818999995943","613.7818999995943","#ffffff","1","psycho","Old","psycho","psycho","0","uniform","j","0","undefined","0","undefined","undefined","1","0","0","0","0","0","0","18","0","NA","0","NA","0","NA","0","NA","0","50","0","50","NA","NA","50","NA","NA","1","50","5","1","0","1","1","31","0","Thu Mar 10 18:22:22 2022","The main experiment item","yes","","assignment1_final.osexp","D:\UoM\course\semester2\experimental_psychology\assignment1","no","mono","no","18","no","#000000","no","no","768","psycho","18","15","1","D:/UoM/course/semester2/experimental_psychology/assignment1\quickrun.csv","psycho","Lentiform Loewenfeld","3.3.11","yes","0","f","space","NA","NA","NA","NA","space","f","space","space","613.7818999995943","3755.3134999998147","NA","NA","NA","NA","6907.825800000865","613.7818999995943","14383.232600000156","2397.241299999223","2","psycho","1024","2","48000","-16","experiment","Edgar","999","odd","87494.77240000034","NA","NA","NA","NA","12105.502599999454","93695.09180000023","128494.45610000021","NA","NA","NA","NA","NA","NA","NA","NA","6150.441199999477","129123.9685999999","NA","130124.40719999996","NA","NA","128498.13170000016","NA","NA","NA","128498.20850000015","6172.05980000017","57660.0540999998","20556.122199999663","91250.84880000031","57659.92840000035","85914.99039999963","6171.670400000039","New experiment","0","613.7818999995943","1","yes","1024"
"NA","100","100","437.3514000007999","437.3514000007999","#ffffff","1","psycho","Young","psycho","psycho","0","uniform","f","1","undefined","1","undefined","undefined","1","0","0","0","0","0","0","19","0","NA","0","NA","0","NA","0","NA","0","51","0","51","NA","NA","51","NA","NA","1","51","5","1","0","1","1","31","0","Thu Mar 10 18:22:22 2022","The main experiment item","yes","","assignment1_final.osexp","D:\UoM\course\semester2\experimental_psychology\assignment1","no","mono","no","18","no","#000000","no","no","768","psycho","19","15","1","D:/UoM/course/semester2/experimental_psychology/assignment1\quickrun.csv","psycho","Lentiform Loewenfeld","3.3.11","yes","0","f","space","NA","NA","NA","NA","space","f","space","space","437.3514000007999","3755.3134999998147","NA","NA","NA","NA","6907.825800000865","437.3514000007999","14383.232600000156","2397.241299999223","2","psycho","1024","2","48000","-16","experiment","Billy","999","odd","87494.77240000034","NA","NA","NA","NA","12105.502599999454","93695.09180000023","130195.24939999974","NA","NA","NA","NA","NA","NA","NA","NA","6150.441199999477","130663.34689999986","NA","131664.26570000022","NA","NA","130214.46790000028","NA","NA","NA","130214.69939999952","6172.05980000017","57660.0540999998","20556.122199999663","91250.84880000031","57659.92840000035","85914.99039999963","6171.670400000039","New experiment","1","437.3514000007999","1","yes","1024"
"NA","100","100","581.6887999999453","581.6887999999453","#ffffff","1","psycho","Young","psycho","psycho","0","uniform","f","1","undefined","1","undefined","undefined","1","0","0","0","0","0","0","20","0","NA","0","NA","0","NA","0","NA","0","52","0","52","NA","NA","52","NA","NA","1","52","5","1","0","1","1","31","0","Thu Mar 10 18:22:22 2022","The main experiment item","yes","","assignment1_final.osexp","D:\UoM\course\semester2\experimental_psychology\assignment1","no","mono","no","18","no","#000000","no","no","768","psycho","20","15","1","D:/UoM/course/semester2/experimental_psychology/assignment1\quickrun.csv","psycho","Lentiform Loewenfeld","3.3.11","yes","0","f","space","NA","NA","NA","NA","space","f","space","space","581.6887999999453","3755.3134999998147","NA","NA","NA","NA","6907.825800000865","581.6887999999453","14383.232600000156","2397.241299999223","2","psycho","1024","2","48000","-16","experiment","Billy","999","odd","87494.77240000034","NA","NA","NA","NA","12105.502599999454","93695.09180000023","131735.56379999992","NA","NA","NA","NA","NA","NA","NA","NA","6150.441199999477","132341.2902","NA","133342.27569999985","NA","NA","131748.13730000006","NA","NA","NA","131748.2264","6172.05980000017","57660.0540999998","20556.122199999663","91250.84880000031","57659.92840000035","85914.99039999963","6171.670400000039","New experiment","1","581.6887999999453","1","yes","1024"
"NA","100","100","986.0043999997142","986.0043999997142","#ffffff","1","psycho","Young","psycho","psycho","0","uniform","f","1","undefined","1","undefined","undefined","1","0","0","0","0","0","0","21","0","NA","0","NA","0","NA","0","NA","0","53","0","53","NA","NA","53","NA","NA","1","53","5","1","0","1","1","31","0","Thu Mar 10 18:22:22 2022","The main experiment item","yes","","assignment1_final.osexp","D:\UoM\course\semester2\experimental_psychology\assignment1","no","mono","no","18","no","#000000","no","no","768","psycho","21","15","1","D:/UoM/course/semester2/experimental_psychology/assignment1\quickrun.csv","psycho","Lentiform Loewenfeld","3.3.11","yes","0","f","space","NA","NA","NA","NA","space","f","space","space","986.0043999997142","3755.3134999998147","NA","NA","NA","NA","6907.825800000865","986.0043999997142","14383.232600000156","2397.241299999223","2","psycho","1024","2","48000","-16","experiment","Mike","999","odd","87494.77240000034","NA","NA","NA","NA","12105.502599999454","93695.09180000023","133413.20689999976","NA","NA","NA","NA","NA","NA","NA","NA","6150.441199999477","134429.91929999972","NA","135430.40969999947","NA","NA","133432.12179999956","NA","NA","NA","133432.3996000003","6172.05980000017","57660.0540999998","20556.122199999663","91250.84880000031","57659.92840000035","85914.99039999963","6171.670400000039","New experiment","1","986.0043999997142","1","yes","1024"
"NA","0","0","1525.0793000004778","1525.0793000004778","#ffffff","1","psycho","Old","psycho","psycho","0","uniform","j","0","undefined","0","undefined","undefined","1","0","0","0","0","0","0","22","0","NA","0","NA","0","NA","0","NA","0","54","0","54","NA","NA","54","NA","NA","1","54","5","1","0","1","1","31","0","Thu Mar 10 18:22:22 2022","The main experiment item","yes","","assignment1_final.osexp","D:\UoM\course\semester2\experimental_psychology\assignment1","no","mono","no","18","no","#000000","no","no","768","psycho","22","15","1","D:/UoM/course/semester2/experimental_psychology/assignment1\quickrun.csv","psycho","Lentiform Loewenfeld","3.3.11","yes","0","f","space","NA","NA","NA","NA","space","f","space","space","1525.0793000004778","3755.3134999998147","NA","NA","NA","NA","6907.825800000865","1525.0793000004778","14383.232600000156","2397.241299999223","2","psycho","1024","2","48000","-16","experiment","Edgar","999","odd","87494.77240000034","NA","NA","NA","NA","12105.502599999454","93695.09180000023","135502.55629999994","NA","NA","NA","NA","NA","NA","NA","NA","6150.441199999477","137051.6502999999","NA","138051.8745999998","NA","NA","135514.73910000004","NA","NA","NA","135514.84269999946","6172.05980000017","57660.0540999998","20556.122199999663","91250.84880000031","57659.92840000035","85914.99039999963","6171.670400000039","New experiment","0","1525.0793000004778","1","yes","1024"
"NA","100","100","649.9602000003506","649.9602000003506","#ffffff","1","psycho","Young","psycho","psycho","0","uniform","f","1","undefined","1","undefined","undefined","1","0","0","0","0","0","0","23","0","NA","0","NA","0","NA","0","NA","0","55","0","55","NA","NA","55","NA","NA","1","55","5","1","0","1","1","31","0","Thu Mar 10 18:22:22 2022","The main experiment item","yes","","assignment1_final.osexp","D:\UoM\course\semester2\experimental_psychology\assignment1","no","mono","no","18","no","#000000","no","no","768","psycho","23","15","1","D:/UoM/course/semester2/experimental_psychology/assignment1\quickrun.csv","psycho","Lentiform Loewenfeld","3.3.11","yes","0","f","space","NA","NA","NA","NA","space","f","space","space","649.9602000003506","3755.3134999998147","NA","NA","NA","NA","6907.825800000865","649.9602000003506","14383.232600000156","2397.241299999223","2","psycho","1024","2","48000","-16","experiment","Joey","999","odd","87494.77240000034","NA","NA","NA","NA","12105.502599999454","93695.09180000023","138123.67819999962","NA","NA","NA","NA","NA","NA","NA","NA","6150.441199999477","138792.92009999973","NA","139792.62289999952","NA","NA","138131.58750000002","NA","NA","NA","138131.67189999967","6172.05980000017","57660.0540999998","20556.122199999663","91250.84880000031","57659.92840000035","85914.99039999963","6171.670400000039","New experiment","1","649.9602000003506","1","yes","1024"
"NA","100","100","538.3352999997442","538.3352999997442","#ffffff","1","psycho","Old","psycho","psycho","0","uniform","j","1","undefined","1","undefined","undefined","1","0","0","0","0","0","0","24","0","NA","0","NA","0","NA","0","NA","0","56","0","56","NA","NA","56","NA","NA","1","56","5","1","0","1","1","31","0","Thu Mar 10 18:22:22 2022","The main experiment item","yes","","assignment1_final.osexp","D:\UoM\course\semester2\experimental_psychology\assignment1","no","mono","no","18","no","#000000","no","no","768","psycho","24","15","1","D:/UoM/course/semester2/experimental_psychology/assignment1\quickrun.csv","psycho","Lentiform Loewenfeld","3.3.11","yes","0","j","space","NA","NA","NA","NA","space","j","space","space","538.3352999997442","3755.3134999998147","NA","NA","NA","NA","6907.825800000865","538.3352999997442","14383.232600000156","2397.241299999223","2","psycho","1024","2","48000","-16","experiment","Wilber","999","odd","87494.77240000034","NA","NA","NA","NA","12105.502599999454","93695.09180000023","139863.7305000002","NA","NA","NA","NA","NA","NA","NA","NA","6150.441199999477","140433.07579999964","NA","141432.49889999971","NA","NA","139882.27290000033","NA","NA","NA","139882.53780000014","6172.05980000017","57660.0540999998","20556.122199999663","91250.84880000031","57659.92840000035","85914.99039999963","6171.670400000039","New experiment","1","538.3352999997442","1","yes","1024"
"NA","100","100","501.50190000023576","501.50190000023576","#ffffff","1","psycho","Young","psycho","psycho","0","uniform","f","1","undefined","1","undefined","undefined","1","0","0","0","0","0","0","25","0","NA","0","NA","0","NA","0","NA","0","57","0","57","NA","NA","57","NA","NA","1","57","5","1","0","1","1","31","0","Thu Mar 10 18:22:22 2022","The main experiment item","yes","","assignment1_final.osexp","D:\UoM\course\semester2\experimental_psychology\assignment1","no","mono","no","18","no","#000000","no","no","768","psycho","25","15","1","D:/UoM/course/semester2/experimental_psychology/assignment1\quickrun.csv","psycho","Lentiform Loewenfeld","3.3.11","yes","0","f","space","NA","NA","NA","NA","space","f","space","space","501.50190000023576","3755.3134999998147","NA","NA","NA","NA","6907.825800000865","501.50190000023576","14383.232600000156","2397.241299999223","2","psycho","1024","2","48000","-16","experiment","Mike","999","odd","87494.77240000034","NA","NA","NA","NA","12105.502599999454","93695.09180000023","141497.3855999997","NA","NA","NA","NA","NA","NA","NA","NA","6150.441199999477","142028.2189999998","NA","143027.73849999995","NA","NA","141515.3061000001","NA","NA","NA","141515.54119999945","6172.05980000017","57660.0540999998","20556.122199999663","91250.84880000031","57659.92840000035","85914.99039999963","6171.670400000039","New experiment","1","501.50190000023576","1","yes","1024"
"NA","100","100","2879.7128999995184","2879.7128999995184","#ffffff","1","psycho","Old","psycho","psycho","0","uniform","j","1","undefined","1","undefined","undefined","1","0","0","0","0","0","0","26","0","NA","0","NA","0","NA","0","NA","0","58","0","58","NA","NA","58","NA","NA","1","58","5","1","0","1","1","31","0","Thu Mar 10 18:22:22 2022","The main experiment item","yes","","assignment1_final.osexp","D:\UoM\course\semester2\experimental_psychology\assignment1","no","mono","no","18","no","#000000","no","no","768","psycho","26","15","1","D:/UoM/course/semester2/experimental_psychology/assignment1\quickrun.csv","psycho","Lentiform Loewenfeld","3.3.11","yes","0","j","space","NA","NA","NA","NA","space","j","space","space","2879.7128999995184","3755.3134999998147","NA","NA","NA","NA","6907.825800000865","2879.7128999995184","14383.232600000156","2397.241299999223","2","psycho","1024","2","48000","-16","experiment","Walter","999","odd","87494.77240000034","NA","NA","NA","NA","12105.502599999454","93695.09180000023","143111.60889999973","NA","NA","NA","NA","NA","NA","NA","NA","6150.441199999477","146015.9649999996","NA","147015.79839999977","NA","NA","143115.73380000028","NA","NA","NA","143115.84870000024","6172.05980000017","57660.0540999998","20556.122199999663","91250.84880000031","57659.92840000035","85914.99039999963","6171.670400000039","New experiment","1","2879.7128999995184","1","yes","1024"
"NA","100","100","582.6677000004565","582.6677000004565","#ffffff","1","psycho","Young","psycho","psycho","0","uniform","f","1","undefined","1","undefined","undefined","1","0","0","0","0","0","0","27","0","NA","0","NA","0","NA","0","NA","0","59","0","59","NA","NA","59","NA","NA","1","59","5","1","0","1","1","31","0","Thu Mar 10 18:22:22 2022","The main experiment item","yes","","assignment1_final.osexp","D:\UoM\course\semester2\experimental_psychology\assignment1","no","mono","no","18","no","#000000","no","no","768","psycho","27","15","1","D:/UoM/course/semester2/experimental_psychology/assignment1\quickrun.csv","psycho","Lentiform Loewenfeld","3.3.11","yes","0","f","space","NA","NA","NA","NA","space","f","space","space","582.6677000004565","3755.3134999998147","NA","NA","NA","NA","6907.825800000865","582.6677000004565","14383.232600000156","2397.241299999223","2","psycho","1024","2","48000","-16","experiment","Chad","999","odd","87494.77240000034","NA","NA","NA","NA","12105.502599999454","93695.09180000023","147077.64119999955","NA","NA","NA","NA","NA","NA","NA","NA","6150.441199999477","147675.4688000001","NA","148674.84830000013","NA","NA","147081.4012999999","NA","NA","NA","147081.48999999958","6172.05980000017","57660.0540999998","20556.122199999663","91250.84880000031","57659.92840000035","85914.99039999963","6171.670400000039","New experiment","1","582.6677000004565","1","yes","1024"
"NA","0","0","1012.5586000003677","1012.5586000003677","#ffffff","1","psycho","Old","psycho","psycho","0","uniform","j","0","undefined","0","undefined","undefined","1","0","0","0","0","0","0","28","0","NA","0","NA","0","NA","0","NA","0","60","0","60","NA","NA","60","NA","NA","1","60","5","1","0","1","1","31","0","Thu Mar 10 18:22:22 2022","The main experiment item","yes","","assignment1_final.osexp","D:\UoM\course\semester2\experimental_psychology\assignment1","no","mono","no","18","no","#000000","no","no","768","psycho","28","15","1","D:/UoM/course/semester2/experimental_psychology/assignment1\quickrun.csv","psycho","Lentiform Loewenfeld","3.3.11","yes","0","f","space","NA","NA","NA","NA","space","f","space","space","1012.5586000003677","3755.3134999998147","NA","NA","NA","NA","6907.825800000865","1012.5586000003677","14383.232600000156","2397.241299999223","2","psycho","1024","2","48000","-16","experiment","Donald","999","odd","87494.77240000034","NA","NA","NA","NA","12105.502599999454","93695.09180000023","148736.33789999987","NA","NA","NA","NA","NA","NA","NA","NA","6150.441199999477","149782.71380000023","NA","150782.2981999998","NA","NA","148749.93540000013","NA","NA","NA","148750.05839999995","6172.05980000017","57660.0540999998","20556.122199999663","91250.84880000031","57659.92840000035","85914.99039999963","6171.670400000039","New experiment","0","1012.5586000003677","1","yes","1024"
"NA","100","100","942.6173000001581","942.6173000001581","#ffffff","1","psycho","Young","psycho","psycho","0","uniform","f","1","undefined","1","undefined","undefined","1","0","0","0","0","0","0","29","0","NA","0","NA","0","NA","0","NA","0","61","0","61","NA","NA","61","NA","NA","1","61","5","1","0","1","1","31","0","Thu Mar 10 18:22:22 2022","The main experiment item","yes","","assignment1_final.osexp","D:\UoM\course\semester2\experimental_psychology\assignment1","no","mono","no","18","no","#000000","no","no","768","psycho","29","15","1","D:/UoM/course/semester2/experimental_psychology/assignment1\quickrun.csv","psycho","Lentiform Loewenfeld","3.3.11","yes","0","f","space","NA","NA","NA","NA","space","f","space","space","942.6173000001581","3755.3134999998147","NA","NA","NA","NA","6907.825800000865","942.6173000001581","14383.232600000156","2397.241299999223","2","psycho","1024","2","48000","-16","experiment","Erik","999","odd","87494.77240000034","NA","NA","NA","NA","12105.502599999454","93695.09180000023","150852.37030000007","NA","NA","NA","NA","NA","NA","NA","NA","6150.441199999477","151809.33480000022","NA","152809.61149999985","NA","NA","150855.54779999983","NA","NA","NA","150855.61599999983","6172.05980000017","57660.0540999998","20556.122199999663","91250.84880000031","57659.92840000035","85914.99039999963","6171.670400000039","New experiment","1","942.6173000001581","1","yes","1024"
"NA","100","100","1088.4346999991976","1088.4346999991976","#ffffff","1","psycho","Young","psycho","psycho","0","uniform","f","1","undefined","1","undefined","undefined","1","0","0","0","0","0","0","30","0","NA","0","NA","0","NA","0","NA","0","62","0","62","NA","NA","62","NA","NA","1","62","5","1","0","1","1","31","0","Thu Mar 10 18:22:22 2022","The main experiment item","yes","","assignment1_final.osexp","D:\UoM\course\semester2\experimental_psychology\assignment1","no","mono","no","18","no","#000000","no","no","768","psycho","30","15","1","D:/UoM/course/semester2/experimental_psychology/assignment1\quickrun.csv","psycho","Lentiform Loewenfeld","3.3.11","yes","0","f","space","NA","NA","NA","NA","space","f","space","space","1088.4346999991976","3755.3134999998147","NA","NA","NA","NA","6907.825800000865","1088.4346999991976","14383.232600000156","2397.241299999223","2","psycho","1024","2","48000","-16","experiment","Brad","999","odd","87494.77240000034","NA","NA","NA","NA","12105.502599999454","93695.09180000023","152879.46009999997","NA","NA","NA","NA","NA","NA","NA","NA","6150.441199999477","154015.99989999976","NA","155015.67969999998","NA","NA","152899.4735999995","NA","NA","NA","152899.73290000035","6172.05980000017","57660.0540999998","20556.122199999663","91250.84880000031","57659.92840000035","85914.99039999963","6171.670400000039","New experiment","1","1088.4346999991976","1","yes","1024"
"NA","100","100","800.1729999996314","800.1729999996314","#ffffff","1","psycho","Old","psycho","psycho","0","uniform","j","1","undefined","1","undefined","undefined","1","0","0","0","0","0","0","31","0","NA","0","NA","0","NA","0","NA","0","63","0","63","NA","NA","63","NA","NA","1","63","5","1","0","1","1","31","0","Thu Mar 10 18:22:22 2022","The main experiment item","yes","","assignment1_final.osexp","D:\UoM\course\semester2\experimental_psychology\assignment1","no","mono","no","18","no","#000000","no","no","768","psycho","31","15","1","D:/UoM/course/semester2/experimental_psychology/assignment1\quickrun.csv","psycho","Lentiform Loewenfeld","3.3.11","yes","0","j","space","NA","NA","NA","NA","space","j","space","space","800.1729999996314","3755.3134999998147","NA","NA","NA","NA","6907.825800000865","800.1729999996314","14383.232600000156","2397.241299999223","2","psycho","1024","2","48000","-16","experiment","Donald","999","odd","87494.77240000034","NA","NA","NA","NA","12105.502599999454","93695.09180000023","155086.63929999966","NA","NA","NA","NA","NA","NA","NA","NA","6150.441199999477","155901.85819999987","NA","156902.26249999978","NA","NA","155089.81029999995","NA","NA","NA","155089.88200000022","6172.05980000017","57660.0540999998","20556.122199999663","91250.84880000031","57659.92840000035","85914.99039999963","6171.670400000039","New experiment","1","800.1729999996314","1","yes","1024"
"NA","100","100","508.1739000006346","508.1739000006346","#ffffff","1","psycho","Young","psycho","psycho","0","uniform","f","1","undefined","1","undefined","undefined","1","0","0","0","0","0","0","32","0","NA","0","NA","0","NA","0","NA","0","64","0","64","NA","NA","64","NA","NA","1","64","5","1","0","1","1","31","0","Thu Mar 10 18:22:22 2022","The main experiment item","yes","","assignment1_final.osexp","D:\UoM\course\semester2\experimental_psychology\assignment1","no","mono","no","18","no","#000000","no","no","768","psycho","32","15","1","D:/UoM/course/semester2/experimental_psychology/assignment1\quickrun.csv","psycho","Lentiform Loewenfeld","3.3.11","yes","0","f","space","NA","NA","NA","NA","space","f","space","space","508.1739000006346","3755.3134999998147","NA","NA","NA","NA","6907.825800000865","508.1739000006346","14383.232600000156","2397.241299999223","2","psycho","1024","2","48000","-16","experiment","Joey","999","odd","87494.77240000034","NA","NA","NA","NA","12105.502599999454","93695.09180000023","156973.9526000003","NA","NA","NA","NA","NA","NA","NA","NA","6150.441199999477","157516.48260000002","NA","158516.59930000006","NA","NA","156983.34819999945","NA","NA","NA","156983.42859999958","6172.05980000017","57660.0540999998","20556.122199999663","91250.84880000031","57659.92840000035","85914.99039999963","6171.670400000039","New experiment","1","508.1739000006346","1","yes","1024"
"NA","100","100","589.0773000001209","589.0773000001209","#ffffff","1","psycho","Old","psycho","psycho","0","uniform","j","1","undefined","1","undefined","undefined","1","0","0","0","0","0","0","33","0","NA","0","NA","0","NA","0","NA","0","65","0","65","NA","NA","65","NA","NA","1","65","5","1","0","1","1","31","0","Thu Mar 10 18:22:22 2022","The main experiment item","yes","","assignment1_final.osexp","D:\UoM\course\semester2\experimental_psychology\assignment1","no","mono","no","18","no","#000000","no","no","768","psycho","33","15","1","D:/UoM/course/semester2/experimental_psychology/assignment1\quickrun.csv","psycho","Lentiform Loewenfeld","3.3.11","yes","0","j","space","NA","NA","NA","NA","space","j","space","space","589.0773000001209","3755.3134999998147","NA","NA","NA","NA","6907.825800000865","589.0773000001209","14383.232600000156","2397.241299999223","2","psycho","1024","2","48000","-16","experiment","Cecil","999","odd","87494.77240000034","NA","NA","NA","NA","12105.502599999454","93695.09180000023","158587.64299999984","NA","NA","NA","NA","NA","NA","NA","NA","6150.441199999477","159200.8440999998","NA","160200.22999999946","NA","NA","158599.98149999956","NA","NA","NA","158600.06650000013","6172.05980000017","57660.0540999998","20556.122199999663","91250.84880000031","57659.92840000035","85914.99039999963","6171.670400000039","New experiment","1","589.0773000001209","1","yes","1024"
"NA","0","0","616.1406999999599","616.1406999999599","#ffffff","1","psycho","Old","psycho","psycho","0","uniform","j","0","undefined","0","undefined","undefined","1","0","0","0","0","0","0","34","0","NA","0","NA","0","NA","0","NA","0","66","0","66","NA","NA","66","NA","NA","1","66","5","1","0","1","1","31","0","Thu Mar 10 18:22:22 2022","The main experiment item","yes","","assignment1_final.osexp","D:\UoM\course\semester2\experimental_psychology\assignment1","no","mono","no","18","no","#000000","no","no","768","psycho","34","15","1","D:/UoM/course/semester2/experimental_psychology/assignment1\quickrun.csv","psycho","Lentiform Loewenfeld","3.3.11","yes","0","f","space","NA","NA","NA","NA","space","f","space","space","616.1406999999599","3755.3134999998147","NA","NA","NA","NA","6907.825800000865","616.1406999999599","14383.232600000156","2397.241299999223","2","psycho","1024","2","48000","-16","experiment","Cecil","999","odd","87494.77240000034","NA","NA","NA","NA","12105.502599999454","93695.09180000023","160272.7050000003","NA","NA","NA","NA","NA","NA","NA","NA","6150.441199999477","160920.66629999955","NA","161921.11569999997","NA","NA","160292.2386","NA","NA","NA","160292.44409999956","6172.05980000017","57660.0540999998","20556.122199999663","91250.84880000031","57659.92840000035","85914.99039999963","6171.670400000039","New experiment","0","616.1406999999599","1","yes","1024"
"NA","100","100","433.43899999943096","433.43899999943096","#ffffff","1","psycho","Young","psycho","psycho","0","uniform","f","1","undefined","1","undefined","undefined","1","0","0","0","0","0","0","35","0","NA","0","NA","0","NA","0","NA","0","67","0","67","NA","NA","67","NA","NA","1","67","5","1","0","1","1","31","0","Thu Mar 10 18:22:22 2022","The main experiment item","yes","","assignment1_final.osexp","D:\UoM\course\semester2\experimental_psychology\assignment1","no","mono","no","18","no","#000000","no","no","768","psycho","35","15","1","D:/UoM/course/semester2/experimental_psychology/assignment1\quickrun.csv","psycho","Lentiform Loewenfeld","3.3.11","yes","0","f","space","NA","NA","NA","NA","space","f","space","space","433.43899999943096","3755.3134999998147","NA","NA","NA","NA","6907.825800000865","433.43899999943096","14383.232600000156","2397.241299999223","2","psycho","1024","2","48000","-16","experiment","Chad","999","odd","87494.77240000034","NA","NA","NA","NA","12105.502599999454","93695.09180000023","161983.91259999972","NA","NA","NA","NA","NA","NA","NA","NA","6150.441199999477","162446.02909999958","NA","163447.1456000001","NA","NA","162000.5314","NA","NA","NA","162000.7899000002","6172.05980000017","57660.0540999998","20556.122199999663","91250.84880000031","57659.92840000035","85914.99039999963","6171.670400000039","New experiment","1","433.43899999943096","1","yes","1024"
"NA","100","100","82759.05315","82759.05315","#ffffff","2","psycho","self","psycho","psycho","0","uniform","f","1","undefined","1","undefined","undefined","1","0","0","0","0","0","0","35","0","0","0","NA","0","NA","0","NA","0","68","0","68","NA","NA","67","0","NA","1","68","5","1","0","1","1","31","0","Thu Mar 10 18:22:22 2022","The main experiment item","yes","","assignment1_final.osexp","D:\UoM\course\semester2\experimental_psychology\assignment1","no","mono","no","18","no","#000000","no","no","768","psycho","0","15","1","D:/UoM/course/semester2/experimental_psychology/assignment1\quickrun.csv","psycho","Lentiform Loewenfeld","3.3.11","yes","0","f","space","f","NA","NA","NA","space","f","space","space","1039.6983000000764","3755.3134999998147","5865.184000000241","NA","NA","NA","6907.825800000865","1039.6983000000764","164478.40799999994","2397.241299999223","2","psycho","1024","2","48000","-16","experiment","My","999","odd","87494.77240000034","163517.1909999999","NA","NA","NA","12105.502599999454","93695.09180000023","161983.91259999972","170651.12260000024","170666.26879999967","NA","NA","NA","NA","NA","NA","6150.441199999477","171735.37359999956","NA","172735.60089999955","NA","NA","162000.5314","170684.1131000001","NA","NA","170684.35789999965","6172.05980000017","57660.0540999998","20556.122199999663","91250.84880000031","57659.92840000035","85914.99039999963","6171.670400000039","New experiment","1","165518.1063","2","yes","1024"
