cue,target,category,firstL,cond,trigger_val,word_number,LearningPhase.thisRepN,LearningPhase.thisTrialN,LearningPhase.thisN,LearningPhase.thisIndex,Dropoff_phase.thisRepN,Dropoff_phase.thisTrialN,Dropoff_phase.thisN,Dropoff_phase.thisIndex,welcome_keyresp.keys,welcome_keyresp.rt,welcome_keyresp.started,welcome_keyresp.stopped,welcome_title.started,welcome_title.stopped,welcome_subtitle.started,welcome_subtitle.stopped,welcome_names.started,welcome_names.stopped,welcome_prompt.started,welcome_prompt.stopped,welcome_uomlogo.started,welcome_uomlogo.stopped,intro1_title.started,intro1_title.stopped,intro1_text.started,intro1_text.stopped,intro1_resp.keys,intro1_resp.rt,resp_intro12.keys,resp_intro12.rt,cue,target,cond,int_drop_resp.keys,int_drop_resp.rt,Intro_drop2.started,Intro_drop2.stopped,intdrop_resp2.keys,intdrop_resp2.rt,intdrop_resp2.started,intdrop_resp2.stopped,blank.started,blank.stopped,cue_stimili.started,cue_stimili.stopped,correct,resp_drop.keys,resp_drop.started,resp_drop.stopped,drop_fdbk_4.started,drop_fdbk_4.stopped,drop_target2.started,drop_target2.stopped,resp_drop.rt,EndLearning.started,EndLearning.stopped,end_resp.keys,end_resp.rt,participant,session,date,expName,psychopyVersion,frameRate,
,,,,,,,,,,,,,,,space,1.9689657035587516,16.49033687298288,None,,,,,,,,,,,,,,,,,,,,,,,,,,,,,,,,,,,,,,,,,,,,,,,1001,001,2013_Jan_22_0820,TNT_test,2021.2.2,120.01213579135519,
,,,,,,,,,,,,,,,,,,,16.49033687298288,None,16.49033687298288,None,16.49033687298288,None,16.49033687298288,None,16.49033687298288,None,18.479411841944966,None,18.479411841944966,None,space,8.84237594748447,,,,,,,,,,,,,,,,,,,,,,,,,,,,,,,1001,001,2013_Jan_22_0820,TNT_test,2021.2.2,120.01213579135519,
,,,,,,,,,,,,,,,,,,,,,,,,,,,,,,,,,,,space,17.36762866787558,,,,,,,,,,,,,,,,,,,,,,,,,,,,,1001,001,2013_Jan_22_0820,TNT_test,2021.2.2,120.01213579135519,
screw,beer,,,cond2,,,0,0,0,0,,,,,,,,,,,,,,,,,,,,,,,,,,,screw,beer,cond2,,,,,,,,,,,,,,,,,,,,,,,,,,1001,001,2013_Jan_22_0820,TNT_test,2021.2.2,120.01213579135519,
paper,sausage,,,prac2,,,1,0,1,0,,,,,,,,,,,,,,,,,,,,,,,,,,,paper,sausage,prac2,,,,,,,,,,,,,,,,,,,,,,,,,,1001,001,2013_Jan_22_0820,TNT_test,2021.2.2,120.01213579135519,
hook,lamp,,,cond3,,,2,0,2,0,,,,,,,,,,,,,,,,,,,,,,,,,,,hook,lamp,cond3,,,,,,,,,,,,,,,,,,,,,,,,,,1001,001,2013_Jan_22_0820,TNT_test,2021.2.2,120.01213579135519,
candy,rat,,,prac2,,,3,0,3,0,,,,,,,,,,,,,,,,,,,,,,,,,,,candy,rat,prac2,,,,,,,,,,,,,,,,,,,,,,,,,,1001,001,2013_Jan_22_0820,TNT_test,2021.2.2,120.01213579135519,
sand,leaves,,,cond1,,,4,0,4,0,,,,,,,,,,,,,,,,,,,,,,,,,,,sand,leaves,cond1,,,,,,,,,,,,,,,,,,,,,,,,,,1001,001,2013_Jan_22_0820,TNT_test,2021.2.2,120.01213579135519,
elephant,skin,,,cond1,,,5,0,5,0,,,,,,,,,,,,,,,,,,,,,,,,,,,elephant,skin,cond1,,,,,,,,,,,,,,,,,,,,,,,,,,1001,001,2013_Jan_22_0820,TNT_test,2021.2.2,120.01213579135519,
eagle,mouse,,,prac1,,,6,0,6,0,,,,,,,,,,,,,,,,,,,,,,,,,,,eagle,mouse,prac1,,,,,,,,,,,,,,,,,,,,,,,,,,1001,001,2013_Jan_22_0820,TNT_test,2021.2.2,120.01213579135519,
jug,beaver,,,cond3,,,7,0,7,0,,,,,,,,,,,,,,,,,,,,,,,,,,,jug,beaver,cond3,,,,,,,,,,,,,,,,,,,,,,,,,,1001,001,2013_Jan_22_0820,TNT_test,2021.2.2,120.01213579135519,
cracker,rake,,,cond2,,,8,0,8,0,,,,,,,,,,,,,,,,,,,,,,,,,,,cracker,rake,cond2,,,,,,,,,,,,,,,,,,,,,,,,,,1001,001,2013_Jan_22_0820,TNT_test,2021.2.2,120.01213579135519,
barn,fence,,,prac2,,,9,0,9,0,,,,,,,,,,,,,,,,,,,,,,,,,,,barn,fence,prac2,,,,,,,,,,,,,,,,,,,,,,,,,,1001,001,2013_Jan_22_0820,TNT_test,2021.2.2,120.01213579135519,
bone,desert,,,prac1,,,10,0,10,0,,,,,,,,,,,,,,,,,,,,,,,,,,,bone,desert,prac1,,,,,,,,,,,,,,,,,,,,,,,,,,1001,001,2013_Jan_22_0820,TNT_test,2021.2.2,120.01213579135519,
shark,cave,,,cond3,,,11,0,11,0,,,,,,,,,,,,,,,,,,,,,,,,,,,shark,cave,cond3,,,,,,,,,,,,,,,,,,,,,,,,,,1001,001,2013_Jan_22_0820,TNT_test,2021.2.2,120.01213579135519,
dove,badge,,,cond2,,,12,0,12,0,,,,,,,,,,,,,,,,,,,,,,,,,,,dove,badge,cond2,,,,,,,,,,,,,,,,,,,,,,,,,,1001,001,2013_Jan_22_0820,TNT_test,2021.2.2,120.01213579135519,
basket,tractor,,,cond2,,,13,0,13,0,,,,,,,,,,,,,,,,,,,,,,,,,,,basket,tractor,cond2,,,,,,,,,,,,,,,,,,,,,,,,,,1001,001,2013_Jan_22_0820,TNT_test,2021.2.2,120.01213579135519,
belt,raft,,,cond1,,,14,0,14,0,,,,,,,,,,,,,,,,,,,,,,,,,,,belt,raft,cond1,,,,,,,,,,,,,,,,,,,,,,,,,,1001,001,2013_Jan_22_0820,TNT_test,2021.2.2,120.01213579135519,
rope,throat,,,cond1,,,15,0,15,0,,,,,,,,,,,,,,,,,,,,,,,,,,,rope,throat,cond1,,,,,,,,,,,,,,,,,,,,,,,,,,1001,001,2013_Jan_22_0820,TNT_test,2021.2.2,120.01213579135519,
pillow,storm,,,cond3,,,16,0,16,0,,,,,,,,,,,,,,,,,,,,,,,,,,,pillow,storm,cond3,,,,,,,,,,,,,,,,,,,,,,,,,,1001,001,2013_Jan_22_0820,TNT_test,2021.2.2,120.01213579135519,
banana,flag,,,cond3,,,17,0,17,0,,,,,,,,,,,,,,,,,,,,,,,,,,,banana,flag,cond3,,,,,,,,,,,,,,,,,,,,,,,,,,1001,001,2013_Jan_22_0820,TNT_test,2021.2.2,120.01213579135519,
actor,map,,,cond3,,,18,0,18,0,,,,,,,,,,,,,,,,,,,,,,,,,,,actor,map,cond3,,,,,,,,,,,,,,,,,,,,,,,,,,1001,001,2013_Jan_22_0820,TNT_test,2021.2.2,120.01213579135519,
river,orchard,,,cond3,,,19,0,19,0,,,,,,,,,,,,,,,,,,,,,,,,,,,river,orchard,cond3,,,,,,,,,,,,,,,,,,,,,,,,,,1001,001,2013_Jan_22_0820,TNT_test,2021.2.2,120.01213579135519,
yogurt,shovel,,,cond1,,,20,0,20,0,,,,,,,,,,,,,,,,,,,,,,,,,,,yogurt,shovel,cond1,,,,,,,,,,,,,,,,,,,,,,,,,,1001,001,2013_Jan_22_0820,TNT_test,2021.2.2,120.01213579135519,
trolley,acorn,,,cond3,,,21,0,21,0,,,,,,,,,,,,,,,,,,,,,,,,,,,trolley,acorn,cond3,,,,,,,,,,,,,,,,,,,,,,,,,,1001,001,2013_Jan_22_0820,TNT_test,2021.2.2,120.01213579135519,
dolphin,grass,,,prac2,,,22,0,22,0,,,,,,,,,,,,,,,,,,,,,,,,,,,dolphin,grass,prac2,,,,,,,,,,,,,,,,,,,,,,,,,,1001,001,2013_Jan_22_0820,TNT_test,2021.2.2,120.01213579135519,
kettle,snake,,,prac1,,,23,0,23,0,,,,,,,,,,,,,,,,,,,,,,,,,,,kettle,snake,prac1,,,,,,,,,,,,,,,,,,,,,,,,,,1001,001,2013_Jan_22_0820,TNT_test,2021.2.2,120.01213579135519,
tower,owl,,,prac1,,,24,0,24,0,,,,,,,,,,,,,,,,,,,,,,,,,,,tower,owl,prac1,,,,,,,,,,,,,,,,,,,,,,,,,,1001,001,2013_Jan_22_0820,TNT_test,2021.2.2,120.01213579135519,
gun,lime,,,cond2,,,25,0,25,0,,,,,,,,,,,,,,,,,,,,,,,,,,,gun,lime,cond2,,,,,,,,,,,,,,,,,,,,,,,,,,1001,001,2013_Jan_22_0820,TNT_test,2021.2.2,120.01213579135519,
college,fog,,,cond3,,,26,0,26,0,,,,,,,,,,,,,,,,,,,,,,,,,,,college,fog,cond3,,,,,,,,,,,,,,,,,,,,,,,,,,1001,001,2013_Jan_22_0820,TNT_test,2021.2.2,120.01213579135519,
turtle,ribbon,,,cond1,,,27,0,27,0,,,,,,,,,,,,,,,,,,,,,,,,,,,turtle,ribbon,cond1,,,,,,,,,,,,,,,,,,,,,,,,,,1001,001,2013_Jan_22_0820,TNT_test,2021.2.2,120.01213579135519,
sparrow,finger,,,prac1,,,28,0,28,0,,,,,,,,,,,,,,,,,,,,,,,,,,,sparrow,finger,prac1,,,,,,,,,,,,,,,,,,,,,,,,,,1001,001,2013_Jan_22_0820,TNT_test,2021.2.2,120.01213579135519,
mango,puppy,,,cond1,,,29,0,29,0,,,,,,,,,,,,,,,,,,,,,,,,,,,mango,puppy,cond1,,,,,,,,,,,,,,,,,,,,,,,,,,1001,001,2013_Jan_22_0820,TNT_test,2021.2.2,120.01213579135519,
dentist,letter,,,cond2,,,30,0,30,0,,,,,,,,,,,,,,,,,,,,,,,,,,,dentist,letter,cond2,,,,,,,,,,,,,,,,,,,,,,,,,,1001,001,2013_Jan_22_0820,TNT_test,2021.2.2,120.01213579135519,
skirt,computer,,,cond3,,,31,0,31,0,,,,,,,,,,,,,,,,,,,,,,,,,,,skirt,computer,cond3,,,,,,,,,,,,,,,,,,,,,,,,,,1001,001,2013_Jan_22_0820,TNT_test,2021.2.2,120.01213579135519,
bucket,panda,,,cond3,,,32,0,32,0,,,,,,,,,,,,,,,,,,,,,,,,,,,bucket,panda,cond3,,,,,,,,,,,,,,,,,,,,,,,,,,1001,001,2013_Jan_22_0820,TNT_test,2021.2.2,120.01213579135519,
swan,groom,,,prac1,,,33,0,33,0,,,,,,,,,,,,,,,,,,,,,,,,,,,swan,groom,prac1,,,,,,,,,,,,,,,,,,,,,,,,,,1001,001,2013_Jan_22_0820,TNT_test,2021.2.2,120.01213579135519,
otter,tomb,,,cond1,,,34,0,34,0,,,,,,,,,,,,,,,,,,,,,,,,,,,otter,tomb,cond1,,,,,,,,,,,,,,,,,,,,,,,,,,1001,001,2013_Jan_22_0820,TNT_test,2021.2.2,120.01213579135519,
oyster,umbrella,,,cond1,,,35,0,35,0,,,,,,,,,,,,,,,,,,,,,,,,,,,oyster,umbrella,cond1,,,,,,,,,,,,,,,,,,,,,,,,,,1001,001,2013_Jan_22_0820,TNT_test,2021.2.2,120.01213579135519,
pin,vase,,,cond1,,,36,0,36,0,,,,,,,,,,,,,,,,,,,,,,,,,,,pin,vase,cond1,,,,,,,,,,,,,,,,,,,,,,,,,,1001,001,2013_Jan_22_0820,TNT_test,2021.2.2,120.01213579135519,
egg,snail,,,cond1,,,37,0,37,0,,,,,,,,,,,,,,,,,,,,,,,,,,,egg,snail,cond1,,,,,,,,,,,,,,,,,,,,,,,,,,1001,001,2013_Jan_22_0820,TNT_test,2021.2.2,120.01213579135519,
cloud,rabbit,,,cond2,,,38,0,38,0,,,,,,,,,,,,,,,,,,,,,,,,,,,cloud,rabbit,cond2,,,,,,,,,,,,,,,,,,,,,,,,,,1001,001,2013_Jan_22_0820,TNT_test,2021.2.2,120.01213579135519,
tent,lion,,,cond1,,,39,0,39,0,,,,,,,,,,,,,,,,,,,,,,,,,,,tent,lion,cond1,,,,,,,,,,,,,,,,,,,,,,,,,,1001,001,2013_Jan_22_0820,TNT_test,2021.2.2,120.01213579135519,
crown,duck,,,cond3,,,40,0,40,0,,,,,,,,,,,,,,,,,,,,,,,,,,,crown,duck,cond3,,,,,,,,,,,,,,,,,,,,,,,,,,1001,001,2013_Jan_22_0820,TNT_test,2021.2.2,120.01213579135519,
ocean,teeth,,,cond1,,,41,0,41,0,,,,,,,,,,,,,,,,,,,,,,,,,,,ocean,teeth,cond1,,,,,,,,,,,,,,,,,,,,,,,,,,1001,001,2013_Jan_22_0820,TNT_test,2021.2.2,120.01213579135519,
needle,chimney,,,cond3,,,42,0,42,0,,,,,,,,,,,,,,,,,,,,,,,,,,,needle,chimney,cond3,,,,,,,,,,,,,,,,,,,,,,,,,,1001,001,2013_Jan_22_0820,TNT_test,2021.2.2,120.01213579135519,
bag,cloak,,,cond2,,,43,0,43,0,,,,,,,,,,,,,,,,,,,,,,,,,,,bag,cloak,cond2,,,,,,,,,,,,,,,,,,,,,,,,,,1001,001,2013_Jan_22_0820,TNT_test,2021.2.2,120.01213579135519,
lemonade,teacher,,,cond1,,,44,0,44,0,,,,,,,,,,,,,,,,,,,,,,,,,,,lemonade,teacher,cond1,,,,,,,,,,,,,,,,,,,,,,,,,,1001,001,2013_Jan_22_0820,TNT_test,2021.2.2,120.01213579135519,
menu,smoke,,,cond1,,,45,0,45,0,,,,,,,,,,,,,,,,,,,,,,,,,,,menu,smoke,cond1,,,,,,,,,,,,,,,,,,,,,,,,,,1001,001,2013_Jan_22_0820,TNT_test,2021.2.2,120.01213579135519,
candle,cottage,,,cond2,,,46,0,46,0,,,,,,,,,,,,,,,,,,,,,,,,,,,candle,cottage,cond2,,,,,,,,,,,,,,,,,,,,,,,,,,1001,001,2013_Jan_22_0820,TNT_test,2021.2.2,120.01213579135519,
poster,butter,,,cond2,,,47,0,47,0,,,,,,,,,,,,,,,,,,,,,,,,,,,poster,butter,cond2,,,,,,,,,,,,,,,,,,,,,,,,,,1001,001,2013_Jan_22_0820,TNT_test,2021.2.2,120.01213579135519,
bride,herring,,,cond2,,,48,0,48,0,,,,,,,,,,,,,,,,,,,,,,,,,,,bride,herring,cond2,,,,,,,,,,,,,,,,,,,,,,,,,,1001,001,2013_Jan_22_0820,TNT_test,2021.2.2,120.01213579135519,
hawk,nectar,,,cond2,,,49,0,49,0,,,,,,,,,,,,,,,,,,,,,,,,,,,hawk,nectar,cond2,,,,,,,,,,,,,,,,,,,,,,,,,,1001,001,2013_Jan_22_0820,TNT_test,2021.2.2,120.01213579135519,
island,goggles,,,prac2,,,50,0,50,0,,,,,,,,,,,,,,,,,,,,,,,,,,,island,goggles,prac2,,,,,,,,,,,,,,,,,,,,,,,,,,1001,001,2013_Jan_22_0820,TNT_test,2021.2.2,120.01213579135519,
bike,zoo,,,cond2,,,51,0,51,0,,,,,,,,,,,,,,,,,,,,,,,,,,,bike,zoo,cond2,,,,,,,,,,,,,,,,,,,,,,,,,,1001,001,2013_Jan_22_0820,TNT_test,2021.2.2,120.01213579135519,
soldier,bean,,,cond1,,,52,0,52,0,,,,,,,,,,,,,,,,,,,,,,,,,,,soldier,bean,cond1,,,,,,,,,,,,,,,,,,,,,,,,,,1001,001,2013_Jan_22_0820,TNT_test,2021.2.2,120.01213579135519,
pickle,toilet,,,cond3,,,53,0,53,0,,,,,,,,,,,,,,,,,,,,,,,,,,,pickle,toilet,cond3,,,,,,,,,,,,,,,,,,,,,,,,,,1001,001,2013_Jan_22_0820,TNT_test,2021.2.2,120.01213579135519,
gum,moon,,,cond3,,,54,0,54,0,,,,,,,,,,,,,,,,,,,,,,,,,,,gum,moon,cond3,,,,,,,,,,,,,,,,,,,,,,,,,,1001,001,2013_Jan_22_0820,TNT_test,2021.2.2,120.01213579135519,
rug,coconut,,,cond3,,,55,0,55,0,,,,,,,,,,,,,,,,,,,,,,,,,,,rug,coconut,cond3,,,,,,,,,,,,,,,,,,,,,,,,,,1001,001,2013_Jan_22_0820,TNT_test,2021.2.2,120.01213579135519,
jeep,tub,,,prac2,,,56,0,56,0,,,,,,,,,,,,,,,,,,,,,,,,,,,jeep,tub,prac2,,,,,,,,,,,,,,,,,,,,,,,,,,1001,001,2013_Jan_22_0820,TNT_test,2021.2.2,120.01213579135519,
string,glass,,,cond2,,,57,0,57,0,,,,,,,,,,,,,,,,,,,,,,,,,,,string,glass,cond2,,,,,,,,,,,,,,,,,,,,,,,,,,1001,001,2013_Jan_22_0820,TNT_test,2021.2.2,120.01213579135519,
furnace,suit,,,cond2,,,58,0,58,0,,,,,,,,,,,,,,,,,,,,,,,,,,,furnace,suit,cond2,,,,,,,,,,,,,,,,,,,,,,,,,,1001,001,2013_Jan_22_0820,TNT_test,2021.2.2,120.01213579135519,
tape,robin,,,cond2,,,59,0,59,0,,,,,,,,,,,,,,,,,,,,,,,,,,,tape,robin,cond2,,,,,,,,,,,,,,,,,,,,,,,,,,1001,001,2013_Jan_22_0820,TNT_test,2021.2.2,120.01213579135519,
,,,,,,,,,,,,,,,,,,,,,,,,,,,,,,,,,,,,,,,,space,19.06295242375836,,,,,,,,,,,,,,,,,,,,,,,,1001,001,2013_Jan_22_0820,TNT_test,2021.2.2,120.01213579135519,
,,,,,,,,,,,,,,,,,,,,,,,,,,,,,,,,,,,,,,,,,,363.77502398991055,None,space,6.105346422160437,0.006158441777188273,None,,,,,,,,,,,,,,,,,,1001,001,2013_Jan_22_0820,TNT_test,2021.2.2,120.01213579135519,
lemonade,teacher,profession,t,cond1,101,13,,,,,0,0,0,2,,,,,,,,,,,,,,,,,,,,,,,lemonade,teacher,cond1,,,,,,,,,369.942164317079,370.44221699074296,370.4255241180481,None,no resp,None,370.4255241180481,None,375.50926226383217,376.509377572369,376.5010644909771,None,,,,,,1001,001,2013_Jan_22_0820,TNT_test,2021.2.2,120.01213579135519,
pillow,storm,climate,s,cond3,103,58,,,,,0,1,1,47,,,,,,,,,,,,,,,,,,,,,,,pillow,storm,cond3,,,,,,,,,378.4345218061417,378.9345071661837,378.9261714456816,None,no resp,None,378.9261714456816,None,383.9183153724689,384.9183368041604,384.9100611527647,None,,,,,,1001,001,2013_Jan_22_0820,TNT_test,2021.2.2,120.01213579135519,
ocean,teeth,tissue,t,cond1,101,14,,,,,0,2,2,3,,,,,,,,,,,,,,,,,,,,,,,ocean,teeth,cond1,,,,,,,,,386.9019020173255,387.40196646332697,387.3935456197696,None,1,f,387.3935456197696,None,390.1021443463651,391.1022315824039,391.0938551115032,None,2.660539517170946,,,,,1001,001,2013_Jan_22_0820,TNT_test,2021.2.2,120.01213579135519,
tape,robin,bird,r,cond2,102,30,,,,,0,3,3,19,,,,,,,,,,,,,,,,,,,,,,,tape,robin,cond2,,,,,,,,,393.1107532454671,393.61081105066296,393.6024523891956,None,no resp,None,393.6024523891956,None,398.62784743412794,399.62796908161545,399.619629738856,None,,,,,,1001,001,2013_Jan_22_0820,TNT_test,2021.2.2,120.01213579135519,
pickle,toilet,facility,t,cond3,103,51,,,,,0,4,4,40,,,,,,,,,,,,,,,,,,,,,,,pickle,toilet,cond3,,,,,,,,,401.64474707736645,402.14481424006044,402.136493914154,None,1,f,402.136493914154,None,405.1034380960682,406.10343990719775,406.09516546322175,None,2.92519856763829,,,,,1001,001,2013_Jan_22_0820,TNT_test,2021.2.2,120.01213579135519,
mango,puppy,mammal,p,cond1,101,12,,,,,0,5,5,1,,,,,,,,,,,,,,,,,,,,,,,mango,puppy,cond1,,,,,,,,,408.1119416478432,408.61204624053426,408.6037292350302,None,no resp,None,408.6037292350302,None,413.6291417875418,414.62921725124306,414.62087670106484,None,,,,,,1001,001,2013_Jan_22_0820,TNT_test,2021.2.2,120.01213579135519,
menu,smoke,gas,s,cond1,101,21,,,,,0,6,6,10,,,,,,,,,,,,,,,,,,,,,,,menu,smoke,cond1,,,,,,,,,416.6377123510838,417.1377275947516,417.1293948927978,None,no resp,None,417.1293948927978,None,422.1548252547427,423.15492848908616,423.1465825055211,None,,,,,,1001,001,2013_Jan_22_0820,TNT_test,2021.2.2,120.01213579135519,
kettle,snake,NA,NA,prac1,104,198,,,,,0,7,7,48,,,,,,,,,,,,,,,,,,,,,,,kettle,snake,prac1,,,,,,,,,425.16341906110483,425.6634759607359,425.6551290716061,None,1,f,425.6551290716061,None,429.74715132072015,430.7472077675693,430.73886661368124,None,4.045952564724757,,,,,1001,001,2013_Jan_22_0820,TNT_test,2021.2.2,120.01213579135519,
bag,cloak,clothing,c,cond2,102,40,,,,,0,8,8,29,,,,,,,,,,,,,,,,,,,,,,,bag,cloak,cond2,,,,,,,,,432.7557647476442,433.2557492021224,433.24734888469175,None,1,f,433.24734888469175,None,435.6809572781867,436.68105266430575,436.6643241727443,None,2.3895907180849463,,,,,1001,001,2013_Jan_22_0820,TNT_test,2021.2.2,120.01213579135519,
otter,tomb,location,t,cond1,101,15,,,,,0,9,9,4,,,,,,,,,,,,,,,,,,,,,,,otter,tomb,cond1,,,,,,,,,438.6812075158223,439.1812547560994,439.1729356376118,None,1,f,439.1729356376118,None,442.47325158903914,443.47322140355845,443.46497895619177,None,3.2638011791050303,,,,,1001,001,2013_Jan_22_0820,TNT_test,2021.2.2,120.01213579135519,
hawk,nectar,flower,n,cond2,102,42,,,,,0,10,10,31,,,,,,,,,,,,,,,,,,,,,,,hawk,nectar,cond2,,,,,,,,,445.48182758596704,445.98175438617636,445.97348899784447,None,no resp,None,445.97348899784447,None,450.9988852501965,451.9990204811502,451.9906805346809,None,,,,,,1001,001,2013_Jan_22_0820,TNT_test,2021.2.2,120.01213579135519,
rope,throat,organ,t,cond1,101,20,,,,,0,11,11,9,,,,,,,,,,,,,,,,,,,,,,,rope,throat,cond1,,,,,,,,,454.00750622349096,454.5075598027197,454.49922166737906,None,no resp,None,454.49922166737906,None,459.5245738489293,460.524747415443,460.50805061863593,None,,,,,,1001,001,2013_Jan_22_0820,TNT_test,2021.2.2,120.01213579135519,
paper,sausage,NA,NA,prac2,104,198,,,,,0,12,12,59,,,,,,,,,,,,,,,,,,,,,,,paper,sausage,prac2,,,,,,,,,462.5248995502661,463.02495162022024,463.0166068440749,None,no resp,None,463.0166068440749,None,468.04194876256133,469.0420963695615,469.0337159745486,None,,,,,,1001,001,2013_Jan_22_0820,TNT_test,2021.2.2,120.01213579135519,
dove,badge,symbol,b,cond2,102,28,,,,,0,13,13,17,,,,,,,,,,,,,,,,,,,,,,,dove,badge,cond2,,,,,,,,,471.0506014306102,471.55066557475675,471.54230872441894,None,no resp,None,471.54230872441894,None,476.5677230880592,477.5678067018407,477.55948486665966,None,,,,,,1001,001,2013_Jan_22_0820,TNT_test,2021.2.2,120.01213579135519,
candy,rat,NA,NA,prac2,104,198,,,,,0,14,14,55,,,,,,,,,,,,,,,,,,,,,,,candy,rat,prac2,,,,,,,,,479.58463450363433,480.08464491762516,480.07637802001955,None,0,j,480.07637802001955,None,483.93500552847036,484.93507525693076,484.9266939563531,None,3.8152524819251994,,,,,1001,001,2013_Jan_22_0820,TNT_test,2021.2.2,120.01213579135519,
poster,butter,dairy,b,cond2,102,36,,,,,0,15,15,25,,,,,,,,,,,,,,,,,,,,,,,poster,butter,cond2,,,,,,,,,486.9435972218489,487.443606126566,487.435279461708,None,1,f,487.435279461708,None,489.26882494866186,490.268886527042,490.2605550325079,None,1.7842384097566537,,,,,1001,001,2013_Jan_22_0820,TNT_test,2021.2.2,120.01213579135519,
barn,fence,NA,NA,prac2,104,198,,,,,0,16,16,54,,,,,,,,,,,,,,,,,,,,,,,barn,fence,prac2,,,,,,,,,492.2773834380114,492.77740985030687,492.7690837891587,None,no resp,None,492.7690837891587,None,497.794483361914,498.79457814432317,498.78624151825716,None,,,,,,1001,001,2013_Jan_22_0820,TNT_test,2021.2.2,120.01213579135519,
rug,coconut,fruit,c,cond3,103,49,,,,,0,17,17,38,,,,,,,,,,,,,,,,,,,,,,,rug,coconut,cond3,,,,,,,,,500.80306116997053,501.30312833266544,501.2948119308712,None,no resp,None,501.2948119308712,None,506.3202087869331,507.32022206854435,507.30361250777605,None,,,,,,1001,001,2013_Jan_22_0820,TNT_test,2021.2.2,120.01213579135519,
bone,desert,NA,NA,prac1,104,198,,,,,0,18,18,49,,,,,,,,,,,,,,,,,,,,,,,bone,desert,prac1,,,,,,,,,509.32048287109774,509.8205153204899,509.8121623942634,None,no resp,None,509.8121623942634,None,514.8376126786261,515.8376114712064,515.8209910436653,None,,,,,,1001,001,2013_Jan_22_0820,TNT_test,2021.2.2,120.01213579135519,
egg,snail,anmial,s,cond1,101,18,,,,,0,19,19,7,,,,,,,,,,,,,,,,,,,,,,,egg,snail,cond1,,,,,,,,,517.8378393715866,518.3379421531481,518.3295403264437,None,no resp,None,518.3295403264437,None,523.3549661605666,524.3550467557998,524.3550467557998,None,,,,,,1001,001,2013_Jan_22_0820,TNT_test,2021.2.2,120.01213579135519,
skirt,computer,machine,c,cond3,103,50,,,,,0,20,20,39,,,,,,,,,,,,,,,,,,,,,,,skirt,computer,cond3,,,,,,,,,526.3718658038042,526.8719199867419,526.8635094062483,None,no resp,None,526.8635094062483,None,531.8890303246353,532.8890520581817,532.8724213675769,None,,,,,,1001,001,2013_Jan_22_0820,TNT_test,2021.2.2,120.01213579135519,
crown,duck,bird,d,cond3,103,53,,,,,0,21,21,42,,,,,,,,,,,,,,,,,,,,,,,crown,duck,cond3,,,,,,,,,534.8892518860639,535.3893175394842,535.3809833282567,None,1,f,535.3809833282567,None,537.4894660218642,538.4895194501651,538.4812462136088,None,2.061217966035656,,,,,1001,001,2013_Jan_22_0820,TNT_test,2021.2.2,120.01213579135519,
gun,lime,fruit,l,cond2,102,41,,,,,0,22,22,30,,,,,,,,,,,,,,,,,,,,,,,gun,lime,cond2,,,,,,,,,540.4980673745968,540.9981185389861,540.9897831203389,None,1,f,540.9897831203389,None,544.565031448743,545.5651681889703,545.5651681889703,None,3.54028841019408,,,,,1001,001,2013_Jan_22_0820,TNT_test,2021.2.2,120.01213579135519,
bike,zoo,facility,z,cond2,102,39,,,,,0,23,23,28,,,,,,,,,,,,,,,,,,,,,,,bike,zoo,cond2,,,,,,,,,547.5820011222959,548.0820296475749,548.0736299338541,None,no resp,None,548.0736299338541,None,553.0991771136096,554.0992160528795,554.090876408266,None,,,,,,1001,001,2013_Jan_22_0820,TNT_test,2021.2.2,120.01213579135519,
jeep,tub,NA,NA,prac2,104,198,,,,,0,24,24,57,,,,,,,,,,,,,,,,,,,,,,,jeep,tub,prac2,,,,,,,,,556.1077063230432,556.6077502429171,556.5994099945938,None,no resp,None,556.5994099945938,None,561.6248237545242,562.6249037460484,562.6082570571389,None,,,,,,1001,001,2013_Jan_22_0820,TNT_test,2021.2.2,120.01213579135519,
basket,tractor,vehicle,t,cond2,102,32,,,,,0,25,25,21,,,,,,,,,,,,,,,,,,,,,,,basket,tractor,cond2,,,,,,,,,564.6251059887691,565.1251314954998,565.116774645162,None,no resp,None,565.116774645162,None,570.1421346749366,571.1422889227433,571.1339695024008,None,,,,,,1001,001,2013_Jan_22_0820,TNT_test,2021.2.2,120.01213579135519,
bride,herring,fish,h,cond2,102,31,,,,,0,26,26,20,,,,,,,,,,,,,,,,,,,,,,,bride,herring,cond2,,,,,,,,,573.1507764762127,573.650770590044,573.6424300398658,None,1,f,573.6424300398658,None,576.6261135801151,577.6261658009971,577.6178475880743,None,2.934727520193519,,,,,1001,001,2013_Jan_22_0820,TNT_test,2021.2.2,120.01213579135519,
cracker,rake,tool,r,cond2,102,34,,,,,0,27,27,23,,,,,,,,,,,,,,,,,,,,,,,cracker,rake,cond2,,,,,,,,,579.6346983308331,580.1347220264352,580.1263929467395,None,no resp,None,580.1263929467395,None,585.1517360726457,586.1518842833557,586.1435379979357,None,,,,,,1001,001,2013_Jan_22_0820,TNT_test,2021.2.2,120.01213579135519,
river,orchard,location,o,cond3,103,57,,,,,0,28,28,46,,,,,,,,,,,,,,,,,,,,,,,river,orchard,cond3,,,,,,,,,588.1603715349711,588.6604323587144,588.652102373454,None,no resp,None,588.652102373454,None,593.6775149259656,594.6775825414425,594.669248330214,None,,,,,,1001,001,2013_Jan_22_0820,TNT_test,2021.2.2,120.01213579135519,
banana,flag,symbol,f,cond3,103,45,,,,,0,29,29,34,,,,,,,,,,,,,,,,,,,,,,,banana,flag,cond3,,,,,,,,,596.6860960544254,597.1861514447828,597.1777390531597,None,no resp,None,597.1777390531597,None,602.2032322009045,603.2032940811405,603.1866286772329,None,,,,,,1001,001,2013_Jan_22_0820,TNT_test,2021.2.2,120.01213579135519,
jug,beaver,anmial,b,cond3,103,54,,,,,0,30,30,43,,,,,,,,,,,,,,,,,,,,,,,jug,beaver,cond3,,,,,,,,,605.203458893865,605.7035320936557,605.6951960712986,None,no resp,None,605.6951960712986,None,610.7205983607473,611.7206852949312,611.7123522911234,None,,,,,,1001,001,2013_Jan_22_0820,TNT_test,2021.2.2,120.01213579135519,
oyster,umbrella,tool,u,cond1,101,26,,,,,0,31,31,15,,,,,,,,,,,,,,,,,,,,,,,oyster,umbrella,cond1,,,,,,,,,613.7291966949315,614.2292173719852,614.2208303361667,None,no resp,None,614.2208303361667,None,619.2463268043139,620.2463657435846,620.2380200618736,None,,,,,,1001,001,2013_Jan_22_0820,TNT_test,2021.2.2,120.01213579135519,
swan,groom,NA,NA,prac1,104,198,,,,,0,32,32,51,,,,,,,,,,,,,,,,,,,,,,,swan,groom,prac1,,,,,,,,,622.2550123745377,622.754930420957,622.7466113024702,None,no resp,None,622.7466113024702,None,627.7719858212758,628.772132824567,628.7637832187438,None,,,,,,1001,001,2013_Jan_22_0820,TNT_test,2021.2.2,120.01213579135519,
tower,owl,NA,NA,prac1,104,198,,,,,0,33,33,53,,,,,,,,,,,,,,,,,,,,,,,tower,owl,prac1,,,,,,,,,630.7806067945703,631.2806374328329,631.272305032734,None,1,f,631.272305032734,None,634.6975994392742,635.6977017680538,635.6893865736793,None,3.3832768210832,,,,,1001,001,2013_Jan_22_0820,TNT_test,2021.2.2,120.01213579135519,
eagle,mouse,NA,NA,prac1,104,198,,,,,0,34,34,52,,,,,,,,,,,,,,,,,,,,,,,eagle,mouse,prac1,,,,,,,,,637.7061832844274,638.2062561823632,638.1979283100864,None,no resp,None,638.1979283100864,None,643.2233194309065,644.2233933853349,644.2150999245059,None,,,,,,1001,001,2013_Jan_22_0820,TNT_test,2021.2.2,120.01213579135519,
college,fog,gas,f,cond3,103,48,,,,,0,35,35,37,,,,,,,,,,,,,,,,,,,,,,,college,fog,cond3,,,,,,,,,646.2319035779146,646.7319562515786,646.7235734417272,None,no resp,None,646.7235734417272,None,651.7490339891528,652.7491248474498,652.7407360005018,None,,,,,,1001,001,2013_Jan_22_0820,TNT_test,2021.2.2,120.01213579135519,
yogurt,shovel,tool,s,cond1,101,19,,,,,0,36,36,8,,,,,,,,,,,,,,,,,,,,,,,yogurt,shovel,cond1,,,,,,,,,654.7576075712432,655.2576520948269,655.2493248262599,None,no resp,None,655.2493248262599,None,660.2747566974786,661.2748140498925,661.258081030508,None,,,,,,1001,001,2013_Jan_22_0820,TNT_test,2021.2.2,120.01213579135519,
soldier,bean,vegetable,b,cond1,101,11,,,,,0,37,37,0,,,,,,,,,,,,,,,,,,,,,,,soldier,bean,cond1,,,,,,,,,663.2749873145513,663.7750206695073,663.7667202660186,None,no resp,None,663.7667202660186,None,668.7921086701454,669.7922103952151,669.7838185297196,None,,,,,,1001,001,2013_Jan_22_0820,TNT_test,2021.2.2,120.01213579135519,
cloud,rabbit,mammal,r,cond2,102,27,,,,,0,38,38,16,,,,,,,,,,,,,,,,,,,,,,,cloud,rabbit,cond2,,,,,,,,,671.8007127395704,672.3007424722691,672.2924170148308,None,1,f,672.2924170148308,None,676.5594290235204,677.5595280318976,677.5511470331749,None,4.218140507979115,,,,,1001,001,2013_Jan_22_0820,TNT_test,2021.2.2,120.01213579135519,
bucket,panda,mammal,p,cond3,103,56,,,,,0,39,39,45,,,,,,,,,,,,,,,,,,,,,,,bucket,panda,cond3,,,,,,,,,679.5680300743979,680.0680024546828,680.0597089938547,None,no resp,None,680.0597089938547,None,685.0851345261226,686.0852434957078,686.0769144160122,None,,,,,,1001,001,2013_Jan_22_0820,TNT_test,2021.2.2,120.01213579135519,
belt,raft,boat,r,cond1,101,22,,,,,0,40,40,11,,,,,,,,,,,,,,,,,,,,,,,belt,raft,cond1,,,,,,,,,688.0937597253842,688.5937622911506,688.5854344188738,None,no resp,None,688.5854344188738,None,693.6108641771089,694.6109317925857,694.594299894562,None,,,,,,1001,001,2013_Jan_22_0820,TNT_test,2021.2.2,120.01213579135519,
screw,beer,drink,b,cond2,102,33,,,,,0,41,41,22,,,,,,,,,,,,,,,,,,,,,,,screw,beer,cond2,,,,,,,,,696.611135846435,697.1111610513117,697.1028198974236,None,no resp,None,697.1028198974236,None,702.1282315443705,703.1283124414585,703.1199836636179,None,,,,,,1001,001,2013_Jan_22_0820,TNT_test,2021.2.2,120.01213579135519,
sparrow,finger,NA,NA,prac1,104,198,,,,,0,42,42,50,,,,,,,,,,,,,,,,,,,,,,,sparrow,finger,prac1,,,,,,,,,705.1451701268779,705.6451929169161,705.6368562908501,None,no resp,None,705.6368562908501,None,710.662305971503,711.6623760018183,711.6456734697695,None,,,,,,1001,001,2013_Jan_22_0820,TNT_test,2021.2.2,120.01213579135519,
sand,leaves,plant,l,cond1,101,17,,,,,0,43,43,6,,,,,,,,,,,,,,,,,,,,,,,sand,leaves,cond1,,,,,,,,,713.662535381156,714.1625962049002,714.1542743697191,None,no resp,None,714.1542743697191,None,719.1796096474,720.1797651026254,720.163122337829,None,,,,,,1001,001,2013_Jan_22_0820,TNT_test,2021.2.2,120.01213579135519,
dentist,letter,document,l,cond2,102,37,,,,,0,44,44,26,,,,,,,,,,,,,,,,,,,,,,,dentist,letter,cond2,,,,,,,,,722.1799211615607,722.6799895316753,722.6716824873802,None,no resp,None,722.6716824873802,None,727.6969809387738,728.6971472607729,728.6888302552688,None,,,,,,1001,001,2013_Jan_22_0820,TNT_test,2021.2.2,120.01213579135519,
trolley,acorn,nut,a,cond3,103,43,,,,,0,45,45,32,,,,,,,,,,,,,,,,,,,,,,,trolley,acorn,cond3,,,,,,,,,730.7139786848247,731.2139700819625,731.2056633395223,None,no resp,None,731.2056633395223,None,736.2311241888028,737.2312247064538,737.2227776015279,None,,,,,,1001,001,2013_Jan_22_0820,TNT_test,2021.2.2,120.01213579135519,
island,goggles,NA,NA,prac2,104,198,,,,,0,46,46,58,,,,,,,,,,,,,,,,,,,,,,,island,goggles,prac2,,,,,,,,,739.2397086376659,739.7397761022148,739.7313377510791,None,no resp,None,739.7313377510791,None,744.7568218431798,745.7568293895492,745.7485549455741,None,,,,,,1001,001,2013_Jan_22_0820,TNT_test,2021.2.2,120.01213579135519,
dolphin,grass,NA,NA,prac2,104,198,,,,,0,47,47,56,,,,,,,,,,,,,,,,,,,,,,,dolphin,grass,prac2,,,,,,,,,747.7653495433387,748.2654263653867,748.2570984931099,None,no resp,None,748.2570984931099,None,753.2824742193352,754.282604016902,754.2742740316417,None,,,,,,1001,001,2013_Jan_22_0820,TNT_test,2021.2.2,120.01213579135519,
shark,cave,place,c,cond3,103,46,,,,,0,48,48,35,,,,,,,,,,,,,,,,,,,,,,,shark,cave,cond3,,,,,,,,,756.291069534971,756.7912133687869,756.7827671694258,None,no resp,None,756.7827671694258,None,761.8082325465284,762.8083249140991,762.7916417007582,None,,,,,,1001,001,2013_Jan_22_0820,TNT_test,2021.2.2,120.01213579135519,
elephant,skin,tissue ,s,cond1,101,25,,,,,0,49,49,14,,,,,,,,,,,,,,,,,,,,,,,elephant,skin,cond1,,,,,,,,,764.8084930472269,765.3084778035591,765.3002326394999,None,no resp,None,765.3002326394999,None,770.3256213454815,771.325676283056,771.3090489128545,None,,,,,,1001,001,2013_Jan_22_0820,TNT_test,2021.2.2,120.01213579135519,
candle,cottage,building,c,cond2,102,35,,,,,0,50,50,24,,,,,,,,,,,,,,,,,,,,,,,candle,cottage,cond2,,,,,,,,,773.3258752053744,773.8258871286389,773.8175722361193,None,no resp,None,773.8175722361193,None,778.8430077295961,779.8430741376533,779.8347308707816,None,,,,,,1001,001,2013_Jan_22_0820,TNT_test,2021.2.2,120.01213579135519,
hook,lamp,tool,l,cond3,103,55,,,,,0,51,51,44,,,,,,,,,,,,,,,,,,,,,,,hook,lamp,cond3,,,,,,,,,781.8515954988616,782.3516291556725,782.3432707960601,None,no resp,None,782.3432707960601,None,787.3686540686558,788.3687705846114,788.3603772098413,None,,,,,,1001,001,2013_Jan_22_0820,TNT_test,2021.2.2,120.01213579135519,
pin,vase,container,v,cond1,101,16,,,,,0,52,52,5,,,,,,,,,,,,,,,,,,,,,,,pin,vase,cond1,,,,,,,,,790.3773212257356,790.8772818336829,790.8690125212388,None,no resp,None,790.8690125212388,None,795.8943683250463,796.89452740253,796.8778372465285,None,,,,,,1001,001,2013_Jan_22_0820,TNT_test,2021.2.2,120.01213579135519,
turtle,ribbon,fabric,r,cond1,101,23,,,,,0,53,53,12,,,,,,,,,,,,,,,,,,,,,,,turtle,ribbon,cond1,,,,,,,,,798.894675009531,799.3946350137685,799.386362984631,None,no resp,None,799.386362984631,None,804.4118030059299,805.411878469632,805.4035394287275,None,,,,,,1001,001,2013_Jan_22_0820,TNT_test,2021.2.2,120.01213579135519,
tent,lion,mammal,l,cond1,101,24,,,,,0,54,54,13,,,,,,,,,,,,,,,,,,,,,,,tent,lion,cond1,,,,,,,,,807.4203980197117,807.9204401284569,807.9120500740901,None,1,f,807.9120500740901,None,810.0872894675913,811.0873655350024,811.0790708667546,None,2.131037284803824,,,,,1001,001,2013_Jan_22_0820,TNT_test,2021.2.2,120.01213579135519,
string,glass,container ,g,cond2,102,29,,,,,0,55,55,18,,,,,,,,,,,,,,,,,,,,,,,string,glass,cond2,,,,,,,,,813.0958500699244,813.5958912731057,813.5875981141317,None,1,f,813.5875981141317,None,815.8544447063869,816.8544896827534,816.8461735828141,None,2.23131496104088,,,,,1001,001,2013_Jan_22_0820,TNT_test,2021.2.2,120.01213579135519,
actor,map,representation,m,cond3,103,47,,,,,0,56,56,36,,,,,,,,,,,,,,,,,,,,,,,actor,map,cond3,,,,,,,,,818.8629503711454,819.3630416822243,819.35463985552,None,no resp,None,819.35463985552,None,824.3800973843972,825.3801378329417,825.3718033198593,None,,,,,,1001,001,2013_Jan_22_0820,TNT_test,2021.2.2,120.01213579135519,
furnace,suit,clothing,s,cond2,102,38,,,,,0,57,57,27,,,,,,,,,,,,,,,,,,,,,,,furnace,suit,cond2,,,,,,,,,827.3887286207555,827.8887477885355,827.8804271607742,None,no resp,None,827.8804271607742,None,832.9058726154599,833.9058596357036,833.8892636584014,None,,,,,,1001,001,2013_Jan_22_0820,TNT_test,2021.2.2,120.01213579135519,
needle,chimney,structure,c,cond3,103,52,,,,,0,58,58,41,,,,,,,,,,,,,,,,,,,,,,,needle,chimney,cond3,,,,,,,,,835.9061053455162,836.4061601321637,836.397821996824,None,no resp,None,836.397821996824,None,841.4231699524062,842.4232384734478,842.4149543701178,None,,,,,,1001,001,2013_Jan_22_0820,TNT_test,2021.2.2,120.01213579135519,
gum,moon,satellite,m,cond3,103,44,,,,,0,59,59,33,,,,,,,,,,,,,,,,,,,,,,,gum,moon,cond3,,,,,,,,,844.4318069240053,844.9318780108124,844.9235392717628,None,no resp,None,844.9235392717628,None,849.9489572576613,850.9490140063645,850.9406067462733,None,,,,,,1001,001,2013_Jan_22_0820,TNT_test,2021.2.2,120.01213579135519,
bike,zoo,facility,z,cond2,102,39,,,,,1,0,60,28,,,,,,,,,,,,,,,,,,,,,,,bike,zoo,cond2,,,,,,,,,852.9575836643417,853.4575681188198,853.4492390391233,None,1,f,853.4492390391233,None,856.8744537559942,857.8746080038009,857.866194102904,None,3.3765584386383125,,,,,1001,001,2013_Jan_22_0820,TNT_test,2021.2.2,120.01213579135519,
belt,raft,boat,r,cond1,101,22,,,,,1,1,61,11,,,,,,,,,,,,,,,,,,,,,,,belt,raft,cond1,,,,,,,,,859.8914602558334,860.3914133174112,860.383130119646,None,1,f,860.383130119646,None,862.7833572955742,863.7834224962126,863.7750955294996,None,2.3625270197790087,,,,,1001,001,2013_Jan_22_0820,TNT_test,2021.2.2,120.01213579135519,
kettle,snake,NA,NA,prac1,104,198,,,,,1,2,62,48,,,,,,,,,,,,,,,,,,,,,,,kettle,snake,prac1,,,,,,,,,None,None,None,None,LEARNED,None,None,None,None,None,None,None,,,,,,1001,001,2013_Jan_22_0820,TNT_test,2021.2.2,120.01213579135519,
poster,butter,dairy,b,cond2,102,36,,,,,1,3,63,25,,,,,,,,,,,,,,,,,,,,,,,poster,butter,cond2,,,,,,,,,None,None,None,None,LEARNED,None,None,None,None,None,None,None,,,,,,1001,001,2013_Jan_22_0820,TNT_test,2021.2.2,120.01213579135519,
shark,cave,place,c,cond3,103,46,,,,,1,4,64,35,,,,,,,,,,,,,,,,,,,,,,,shark,cave,cond3,,,,,,,,,866.0336368885892,866.5335830075055,866.5335830075055,None,1,f,866.5335830075055,None,868.4588820927956,869.4588531147338,869.4505732373718,None,1.891972503442048,,,,,1001,001,2013_Jan_22_0820,TNT_test,2021.2.2,120.01213579135519,
bucket,panda,mammal,p,cond3,103,56,,,,,1,5,65,45,,,,,,,,,,,,,,,,,,,,,,,bucket,panda,cond3,,,,,,,,,871.4674197541635,871.9674621647637,871.9590702992673,None,no resp,None,871.9590702992673,None,876.9845528820942,877.9846057066852,877.9762072003841,None,,,,,,1001,001,2013_Jan_22_0820,TNT_test,2021.2.2,120.01213579135519,
dove,badge,symbol,b,cond2,102,28,,,,,1,6,66,17,,,,,,,,,,,,,,,,,,,,,,,dove,badge,cond2,,,,,,,,,880.0014642976694,880.5014967470615,880.4931727988969,None,1,f,880.4931727988969,None,884.376841578447,885.3768355413504,885.3685770956799,None,3.8359576087186724,,,,,1001,001,2013_Jan_22_0820,TNT_test,2021.2.2,120.01213579135519,
tower,owl,NA,NA,prac1,104,198,,,,,1,7,67,53,,,,,,,,,,,,,,,,,,,,,,,tower,owl,prac1,,,,,,,,,None,None,None,None,LEARNED,None,None,None,None,None,None,None,,,,,,1001,001,2013_Jan_22_0820,TNT_test,2021.2.2,120.01213579135519,
dentist,letter,document,l,cond2,102,37,,,,,1,8,68,26,,,,,,,,,,,,,,,,,,,,,,,dentist,letter,cond2,,,,,,,,,887.4270732369187,887.9271198734859,887.918772984357,None,no resp,None,887.918772984357,None,892.944212703801,893.9442069685592,893.9359385616799,None,,,,,,1001,001,2013_Jan_22_0820,TNT_test,2021.2.2,120.01213579135519,
turtle,ribbon,fabric,r,cond1,101,23,,,,,1,9,69,12,,,,,,,,,,,,,,,,,,,,,,,turtle,ribbon,cond1,,,,,,,,,895.9527325557347,896.4528347335872,896.4445107854226,None,no resp,None,896.4445107854226,None,901.469958051237,902.4699945756693,902.4533343032936,None,,,,,,1001,001,2013_Jan_22_0820,TNT_test,2021.2.2,120.01213579135519,
oyster,umbrella,tool,u,cond1,101,26,,,,,1,10,70,15,,,,,,,,,,,,,,,,,,,,,,,oyster,umbrella,cond1,,,,,,,,,904.4701068656568,904.9702313807647,904.9618841897809,None,no resp,None,904.9618841897809,None,909.9872985534212,910.9873722059938,910.9789758126763,None,,,,,,1001,001,2013_Jan_22_0820,TNT_test,2021.2.2,120.01213579135519,
island,goggles,NA,NA,prac2,104,198,,,,,1,11,71,58,,,,,,,,,,,,,,,,,,,,,,,island,goggles,prac2,,,,,,,,,912.9958999061528,913.4959821615885,913.487629235362,None,no resp,None,913.487629235362,None,918.51303967489,919.5130411841637,919.5047471196258,None,,,,,,1001,001,2013_Jan_22_0820,TNT_test,2021.2.2,120.01213579135519,
jug,beaver,anmial,b,cond3,103,54,,,,,1,12,72,43,,,,,,,,,,,,,,,,,,,,,,,jug,beaver,cond3,,,,,,,,,921.5215272283594,922.0216408766946,922.0133057599023,None,no resp,None,922.0133057599023,None,927.0386383208897,928.0387385366857,928.0221540298671,None,,,,,,1001,001,2013_Jan_22_0820,TNT_test,2021.2.2,120.01213579135519,
tent,lion,mammal,l,cond1,101,24,,,,,1,13,73,13,,,,,,,,,,,,,,,,,,,,,,,tent,lion,cond1,,,,,,,,,None,None,None,None,LEARNED,None,None,None,None,None,None,None,,,,,,1001,001,2013_Jan_22_0820,TNT_test,2021.2.2,120.01213579135519,
soldier,bean,vegetable,b,cond1,101,11,,,,,1,14,74,0,,,,,,,,,,,,,,,,,,,,,,,soldier,bean,cond1,,,,,,,,,930.0889726099967,930.5890228688222,930.5806648110647,None,no resp,None,930.5806648110647,None,935.6060722320435,936.6061884461451,936.5895275700595,None,,,,,,1001,001,2013_Jan_22_0820,TNT_test,2021.2.2,120.01213579135519,
basket,tractor,vehicle,t,cond2,102,32,,,,,1,15,75,21,,,,,,,,,,,,,,,,,,,,,,,basket,tractor,cond2,,,,,,,,,938.6063137158899,939.1063733322144,939.0980590434037,None,0,j,939.0980590434037,None,943.7317244270871,944.7318481875582,944.7235245412485,None,4.589506138368961,,,,,1001,001,2013_Jan_22_0820,TNT_test,2021.2.2,120.01213579135519,
paper,sausage,NA,NA,prac2,104,198,,,,,1,16,76,59,,,,,,,,,,,,,,,,,,,,,,,paper,sausage,prac2,,,,,,,,,946.7403496263487,947.2403896221103,947.2320046992754,None,1,f,947.2320046992754,None,951.2240930847775,952.2241600965453,952.2157416678256,None,3.943327967361256,,,,,1001,001,2013_Jan_22_0820,TNT_test,2021.2.2,120.01213579135519,
rope,throat,organ,t,cond1,101,20,,,,,1,17,77,9,,,,,,,,,,,,,,,,,,,,,,,rope,throat,cond1,,,,,,,,,954.2326787410602,954.7326269729601,954.7243664143061,None,1,f,954.7243664143061,None,957.566315539093,958.5663481394122,958.5580057781044,None,2.802795839595092,,,,,1001,001,2013_Jan_22_0820,TNT_test,2021.2.2,120.01213579135519,
elephant,skin,tissue ,s,cond1,101,25,,,,,1,18,78,14,,,,,,,,,,,,,,,,,,,,,,,elephant,skin,cond1,,,,,,,,,960.5748571245731,961.0748859517071,961.0665855482175,None,1,f,961.0665855482175,None,963.5167539982931,964.5168466677187,964.5168466677187,None,2.4124320713490306,,,,,1001,001,2013_Jan_22_0820,TNT_test,2021.2.2,120.01213579135519,
dolphin,grass,NA,NA,prac2,104,198,,,,,1,19,79,56,,,,,,,,,,,,,,,,,,,,,,,dolphin,grass,prac2,,,,,,,,,966.5337004290259,967.033719294951,967.0253808577563,None,no resp,None,967.0253808577563,None,972.0508160493782,973.050912642917,973.0425609241101,None,,,,,,1001,001,2013_Jan_22_0820,TNT_test,2021.2.2,120.01213579135519,
hook,lamp,tool,l,cond3,103,55,,,,,1,20,80,44,,,,,,,,,,,,,,,,,,,,,,,hook,lamp,cond3,,,,,,,,,975.0593443532471,975.5594024602979,975.5510332339118,None,no resp,None,975.5510332339118,None,980.5765209482706,981.5765946008432,981.559937045161,None,,,,,,1001,001,2013_Jan_22_0820,TNT_test,2021.2.2,120.01213579135519,
crown,duck,bird,d,cond3,103,53,,,,,1,21,81,42,,,,,,,,,,,,,,,,,,,,,,,crown,duck,cond3,,,,,,,,,None,None,None,None,LEARNED,None,None,None,None,None,None,None,,,,,,1001,001,2013_Jan_22_0820,TNT_test,2021.2.2,120.01213579135519,
bag,cloak,clothing,c,cond2,102,40,,,,,1,22,82,29,,,,,,,,,,,,,,,,,,,,,,,bag,cloak,cond2,,,,,,,,,None,None,None,None,LEARNED,None,None,None,None,None,None,None,,,,,,1001,001,2013_Jan_22_0820,TNT_test,2021.2.2,120.01213579135519,
furnace,suit,clothing,s,cond2,102,38,,,,,1,23,83,27,,,,,,,,,,,,,,,,,,,,,,,furnace,suit,cond2,,,,,,,,,983.6601486151958,984.1601689903946,984.1517671636902,None,no resp,None,984.1517671636902,None,989.1772301259543,990.1772892894969,990.1690157510857,None,,,,,,1001,001,2013_Jan_22_0820,TNT_test,2021.2.2,120.01213579135519,
bride,herring,fish,h,cond2,102,31,,,,,1,24,84,20,,,,,,,,,,,,,,,,,,,,,,,bride,herring,cond2,,,,,,,,,None,None,None,None,LEARNED,None,None,None,None,None,None,None,,,,,,1001,001,2013_Jan_22_0820,TNT_test,2021.2.2,120.01213579135519,
hawk,nectar,flower,n,cond2,102,42,,,,,1,25,85,31,,,,,,,,,,,,,,,,,,,,,,,hawk,nectar,cond2,,,,,,,,,992.2275097793408,992.7275527936508,992.719167568961,None,1,f,992.719167568961,None,996.1195046200382,997.119586724546,997.1112543244471,None,3.350975036305499,,,,,1001,001,2013_Jan_22_0820,TNT_test,2021.2.2,120.01213579135519,
trolley,acorn,nut,a,cond3,103,43,,,,,1,26,86,32,,,,,,,,,,,,,,,,,,,,,,,trolley,acorn,cond3,,,,,,,,,999.1280917855947,999.6281314795015,999.6197999849674,None,no resp,None,999.6197999849674,None,1004.6452294413484,1005.6453305627083,1005.6369767309179,None,,,,,,1001,001,2013_Jan_22_0820,TNT_test,2021.2.2,120.01213579135519,
pickle,toilet,facility,t,cond3,103,51,,,,,1,27,87,40,,,,,,,,,,,,,,,,,,,,,,,pickle,toilet,cond3,,,,,,,,,None,None,None,None,LEARNED,None,None,None,None,None,None,None,,,,,,1001,001,2013_Jan_22_0820,TNT_test,2021.2.2,120.01213579135519,
sand,leaves,plant,l,cond1,101,17,,,,,1,28,88,6,,,,,,,,,,,,,,,,,,,,,,,sand,leaves,cond1,,,,,,,,,1007.703793198064,1008.2038274585848,1008.1871074189567,None,no resp,None,1008.1871074189567,None,1013.2126192817004,1014.2127047066106,1014.2043454414334,None,,,,,,1001,001,2013_Jan_22_0820,TNT_test,2021.2.2,120.01213579135519,
banana,flag,symbol,f,cond3,103,45,,,,,1,29,89,34,,,,,,,,,,,,,,,,,,,,,,,banana,flag,cond3,,,,,,,,,1016.2211792803237,1016.721234670681,1016.7128304291373,None,no resp,None,1016.7128304291373,None,1021.738309389707,1022.7383827404246,1022.7217242791776,None,,,,,,1001,001,2013_Jan_22_0820,TNT_test,2021.2.2,120.01213579135519,
string,glass,container ,g,cond2,102,29,,,,,1,30,90,18,,,,,,,,,,,,,,,,,,,,,,,string,glass,cond2,,,,,,,,,None,None,None,None,LEARNED,None,None,None,None,None,None,None,,,,,,1001,001,2013_Jan_22_0820,TNT_test,2021.2.2,120.01213579135519,
sparrow,finger,NA,NA,prac1,104,198,,,,,1,31,91,50,,,,,,,,,,,,,,,,,,,,,,,sparrow,finger,prac1,,,,,,,,,1024.7802110629182,1025.2802866775473,1025.2719533718837,None,1,f,1025.2719533718837,None,1027.730478974152,1028.73055987124,1028.7222452805754,None,2.413411892053773,,,,,1001,001,2013_Jan_22_0820,TNT_test,2021.2.2,120.01213579135519,
cracker,rake,tool,r,cond2,102,34,,,,,1,32,92,23,,,,,,,,,,,,,,,,,,,,,,,cracker,rake,cond2,,,,,,,,,1030.7473789192445,1031.2474500060516,1031.239039727413,None,no resp,None,1031.239039727413,None,1036.2645235176587,1037.2646050184567,1037.2562846925503,None,,,,,,1001,001,2013_Jan_22_0820,TNT_test,2021.2.2,120.01213579135519,
rug,coconut,fruit,c,cond3,103,49,,,,,1,33,93,38,,,,,,,,,,,,,,,,,,,,,,,rug,coconut,cond3,,,,,,,,,1039.2731085702308,1039.7731536975252,1039.7647971490414,None,no resp,None,1039.7647971490414,None,1044.7902413963075,1045.7902715817881,1045.781997439667,None,,,,,,1001,001,2013_Jan_22_0820,TNT_test,2021.2.2,120.01213579135519,
barn,fence,NA,NA,prac2,104,198,,,,,1,34,94,54,,,,,,,,,,,,,,,,,,,,,,,barn,fence,prac2,,,,,,,,,1047.7988312785574,1048.2988039606971,1048.290530120431,None,no resp,None,1048.290530120431,None,1053.3159577656825,1054.3159942901138,1054.2993590716878,None,,,,,,1001,001,2013_Jan_22_0820,TNT_test,2021.2.2,120.01213579135519,
gum,moon,satellite,m,cond3,103,44,,,,,1,35,95,33,,,,,,,,,,,,,,,,,,,,,,,gum,moon,cond3,,,,,,,,,1056.3161901938838,1056.8162431694027,1056.8079038266433,None,1,f,1056.8079038266433,None,1061.166536315699,1062.166617514642,1062.1583346187317,None,4.316574756909176,,,,,1001,001,2013_Jan_22_0820,TNT_test,2021.2.2,120.01213579135519,
eagle,mouse,NA,NA,prac1,104,198,,,,,1,36,96,52,,,,,,,,,,,,,,,,,,,,,,,eagle,mouse,prac1,,,,,,,,,1064.175192606006,1064.675202416287,1064.6668238324028,None,1,f,1064.6668238324028,None,1068.8089138328287,1069.8090022762872,1069.8006529723189,None,4.105410415379083,,,,,1001,001,2013_Jan_22_0820,TNT_test,2021.2.2,120.01213579135519,
candle,cottage,building,c,cond2,102,35,,,,,1,37,97,24,,,,,,,,,,,,,,,,,,,,,,,candle,cottage,cond2,,,,,,,,,1071.817459644276,1072.3175434089853,1072.30925145743,None,no resp,None,1072.30925145743,None,1077.3346368430093,1078.3347168345326,1078.3263083670226,None,,,,,,1001,001,2013_Jan_22_0820,TNT_test,2021.2.2,120.01213579135519,
needle,chimney,structure,c,cond3,103,52,,,,,1,38,98,41,,,,,,,,,,,,,,,,,,,,,,,needle,chimney,cond3,,,,,,,,,1080.3432397050155,1080.843247100458,1080.834906248424,None,1,f,1080.834906248424,None,1083.6767983226528,1084.676897934739,1084.668580023671,None,2.8009844088974205,,,,,1001,001,2013_Jan_22_0820,TNT_test,2021.2.2,120.01213579135519,
jeep,tub,NA,NA,prac2,104,198,,,,,1,39,99,57,,,,,,,,,,,,,,,,,,,,,,,jeep,tub,prac2,,,,,,,,,1086.685343530391,1087.1854647250957,1087.1770948950007,None,no resp,None,1087.1770948950007,None,1092.202470923081,1093.202642980321,1093.194210062571,None,,,,,,1001,001,2013_Jan_22_0820,TNT_test,2021.2.2,120.01213579135519,
river,orchard,location,o,cond3,103,57,,,,,1,40,100,46,,,,,,,,,,,,,,,,,,,,,,,river,orchard,cond3,,,,,,,,,1095.2111208744373,1095.7110944621409,1095.7028254515517,None,no resp,None,1095.7028254515517,None,1100.7281833683428,1101.7283098455073,1101.7200070271792,None,,,,,,1001,001,2013_Jan_22_0820,TNT_test,2021.2.2,120.01213579135519,
menu,smoke,gas,s,cond1,101,21,,,,,1,41,101,10,,,,,,,,,,,,,,,,,,,,,,,menu,smoke,cond1,,,,,,,,,1103.7367545355946,1104.2368621468331,1104.2285143521394,None,1,f,1104.2285143521394,None,1106.2370517116524,1107.2371458903517,1107.2288137921078,None,1.9667627671751688,,,,,1001,001,2013_Jan_22_0820,TNT_test,2021.2.2,120.01213579135519,
gun,lime,fruit,l,cond2,102,41,,,,,1,42,102,30,,,,,,,,,,,,,,,,,,,,,,,gun,lime,cond2,,,,,,,,,None,None,None,None,LEARNED,None,None,None,None,None,None,None,,,,,,1001,001,2013_Jan_22_0820,TNT_test,2021.2.2,120.01213579135519,
actor,map,representation,m,cond3,103,47,,,,,1,43,103,36,,,,,,,,,,,,,,,,,,,,,,,actor,map,cond3,,,,,,,,,1109.2873189889915,1109.7873399679002,1109.7789396504695,None,no resp,None,1109.7789396504695,None,1114.8044424575692,1115.804509771191,1115.7961583542392,None,,,,,,1001,001,2013_Jan_22_0820,TNT_test,2021.2.2,120.01213579135519,
otter,tomb,location,t,cond1,101,15,,,,,1,44,104,4,,,,,,,,,,,,,,,,,,,,,,,otter,tomb,cond1,,,,,,,,,None,None,None,None,LEARNED,None,None,None,None,None,None,None,,,,,,1001,001,2013_Jan_22_0820,TNT_test,2021.2.2,120.01213579135519,
ocean,teeth,tissue,t,cond1,101,14,,,,,1,45,105,3,,,,,,,,,,,,,,,,,,,,,,,ocean,teeth,cond1,,,,,,,,,None,None,None,None,LEARNED,None,None,None,None,None,None,None,,,,,,1001,001,2013_Jan_22_0820,TNT_test,2021.2.2,120.01213579135519,
screw,beer,drink,b,cond2,102,33,,,,,1,46,106,22,,,,,,,,,,,,,,,,,,,,,,,screw,beer,cond2,,,,,,,,,1117.896342153631,1118.3963205710124,1118.3880349584088,None,no resp,None,1118.3880349584088,None,1123.413482526078,1124.4135438026033,1124.396891076598,None,,,,,,1001,001,2013_Jan_22_0820,TNT_test,2021.2.2,120.01213579135519,
bone,desert,NA,NA,prac1,104,198,,,,,1,47,107,49,,,,,,,,,,,,,,,,,,,,,,,bone,desert,prac1,,,,,,,,,1126.4137801549177,1126.9137655149598,1126.905466318889,None,no resp,None,1126.905466318889,None,1131.930791031652,1132.9308755509983,1132.9226107663762,None,,,,,,1001,001,2013_Jan_22_0820,TNT_test,2021.2.2,120.01213579135519,
lemonade,teacher,profession,t,cond1,101,13,,,,,1,48,108,2,,,,,,,,,,,,,,,,,,,,,,,lemonade,teacher,cond1,,,,,,,,,1134.9394295125257,1135.4394722249808,1135.4311352970599,None,no resp,None,1135.4311352970599,None,1140.4565777331973,1141.456646556093,1141.448304798495,None,,,,,,1001,001,2013_Jan_22_0820,TNT_test,2021.2.2,120.01213579135519,
pin,vase,container,v,cond1,101,16,,,,,1,49,109,5,,,,,,,,,,,,,,,,,,,,,,,pin,vase,cond1,,,,,,,,,1143.465145278191,1143.9651433161343,1143.9568392903875,None,no resp,None,1143.9568392903875,None,1148.9822799153962,1149.982301045232,1149.9657165384133,None,,,,,,1001,001,2013_Jan_22_0820,TNT_test,2021.2.2,120.01213579135519,
yogurt,shovel,tool,s,cond1,101,19,,,,,1,50,110,8,,,,,,,,,,,,,,,,,,,,,,,yogurt,shovel,cond1,,,,,,,,,1151.9825286437572,1152.4825734691958,1152.4742513321607,None,no resp,None,1152.4742513321607,None,1157.4996967868456,1158.4997976063514,1158.4830126679408,None,,,,,,1001,001,2013_Jan_22_0820,TNT_test,2021.2.2,120.01213579135519,
college,fog,gas,f,cond3,103,48,,,,,1,51,111,37,,,,,,,,,,,,,,,,,,,,,,,college,fog,cond3,,,,,,,,,1160.4998736737625,1160.9998692968684,1160.9916042103914,None,1,f,1160.9916042103914,None,1164.433512705521,1165.4336684626014,1165.4253442125828,None,3.3941070697110263,,,,,1001,001,2013_Jan_22_0820,TNT_test,2021.2.2,120.01213579135519,
mango,puppy,mammal,p,cond1,101,12,,,,,1,52,112,1,,,,,,,,,,,,,,,,,,,,,,,mango,puppy,cond1,,,,,,,,,1167.4421753347797,1167.942135942727,1167.9338578764937,None,1,f,1167.9338578764937,None,1170.8841384656298,1171.884190686511,1171.8758600975407,None,2.9157133840308234,,,,,1001,001,2013_Jan_22_0820,TNT_test,2021.2.2,120.01213579135519,
candy,rat,NA,NA,prac2,104,198,,,,,1,53,113,55,,,,,,,,,,,,,,,,,,,,,,,candy,rat,prac2,,,,,,,,,1173.8926112282134,1174.392665411152,1174.384395494998,None,1,f,1174.384395494998,None,1176.501270054101,1177.501341291836,1177.492995610125,None,2.0810975199310633,,,,,1001,001,2013_Jan_22_0820,TNT_test,2021.2.2,120.01213579135519,
swan,groom,NA,NA,prac1,104,198,,,,,1,54,114,51,,,,,,,,,,,,,,,,,,,,,,,swan,groom,prac1,,,,,,,,,1179.5098385046595,1180.009936456544,1180.00154217621,None,no resp,None,1180.00154217621,None,1185.026944163803,1186.0270549445177,1186.018649495555,None,,,,,,1001,001,2013_Jan_22_0820,TNT_test,2021.2.2,120.01213579135519,
cloud,rabbit,mammal,r,cond2,102,27,,,,,1,55,115,16,,,,,,,,,,,,,,,,,,,,,,,cloud,rabbit,cond2,,,,,,,,,None,None,None,None,LEARNED,None,None,None,None,None,None,None,,,,,,1001,001,2013_Jan_22_0820,TNT_test,2021.2.2,120.01213579135519,
pillow,storm,climate,s,cond3,103,58,,,,,1,56,116,47,,,,,,,,,,,,,,,,,,,,,,,pillow,storm,cond3,,,,,,,,,1188.0772177800927,1188.5772562665807,1188.5689045477748,None,no resp,None,1188.5689045477748,None,1193.5943445690737,1194.5944318051124,1194.5860825011441,None,,,,,,1001,001,2013_Jan_22_0820,TNT_test,2021.2.2,120.01213579135519,
tape,robin,bird,r,cond2,102,30,,,,,1,57,117,19,,,,,,,,,,,,,,,,,,,,,,,tape,robin,cond2,,,,,,,,,1196.6029398847095,1197.1029626747477,1197.0945753370734,None,no resp,None,1197.0945753370734,None,1202.1200527883684,1203.1200862942524,1203.1034091180072,None,,,,,,1001,001,2013_Jan_22_0820,TNT_test,2021.2.2,120.01213579135519,
skirt,computer,machine,c,cond3,103,50,,,,,1,58,118,39,,,,,,,,,,,,,,,,,,,,,,,skirt,computer,cond3,,,,,,,,,1205.1286644041638,1205.6286313510627,1205.6203547941032,None,1,f,1205.6203547941032,None,1207.7871917571902,1208.7872720505684,1208.7789550450652,None,2.124246457206027,,,,,1001,001,2013_Jan_22_0820,TNT_test,2021.2.2,120.01213579135519,
egg,snail,anmial,s,cond1,101,18,,,,,1,59,119,7,,,,,,,,,,,,,,,,,,,,,,,egg,snail,cond1,,,,,,,,,1210.795701044206,1211.2958288797172,1211.2874430513175,None,no resp,None,1211.2874430513175,None,1216.3128691872953,1217.3129826847025,1217.304596252593,None,,,,,,1001,001,2013_Jan_22_0820,TNT_test,2021.2.2,120.01213579135519,
dolphin,grass,NA,NA,prac2,104,198,,,,,2,0,120,56,,,,,,,,,,,,,,,,,,,,,,,dolphin,grass,prac2,,,,,,,,,1219.3214780863973,1219.8215709067508,1219.8131268203724,None,no resp,None,1219.8131268203724,None,1224.8386317404556,1225.8387334655254,1225.8220626282318,None,,,,,,1001,001,2013_Jan_22_0820,TNT_test,2021.2.2,120.01213579135519,
cracker,rake,tool,r,cond2,102,34,,,,,2,1,121,23,,,,,,,,,,,,,,,,,,,,,,,cracker,rake,cond2,,,,,,,,,1227.8388705076077,1228.3388996365966,1228.3305150156166,None,1,f,1228.3305150156166,None,1231.939251418189,1232.9393006205228,1232.9393006205228,None,3.573458329396999,,,,,1001,001,2013_Jan_22_0820,TNT_test,2021.2.2,120.01213579135519,
egg,snail,anmial,s,cond1,101,18,,,,,2,2,122,7,,,,,,,,,,,,,,,,,,,,,,,egg,snail,cond1,,,,,,,,,1234.9561048776413,1235.4561315917917,1235.447793456452,None,1,f,1235.447793456452,None,1237.764765756141,1238.7647376836449,1238.756462334104,None,2.279947694598377,,,,,1001,001,2013_Jan_22_0820,TNT_test,2021.2.2,120.01213579135519,
pillow,storm,climate,s,cond3,103,58,,,,,2,3,123,47,,,,,,,,,,,,,,,,,,,,,,,pillow,storm,cond3,,,,,,,,,1240.7816279693834,1241.281615140554,1241.273350959641,None,1,f,1241.273350959641,None,1243.0151316796318,1244.0152177082518,1244.0068158815475,None,1.7023340319256022,,,,,1001,001,2013_Jan_22_0820,TNT_test,2021.2.2,120.01213579135519,
rug,coconut,fruit,c,cond3,103,49,,,,,2,4,124,38,,,,,,,,,,,,,,,,,,,,,,,rug,coconut,cond3,,,,,,,,,1246.0320738843975,1246.5320849020973,1246.523754011273,None,no resp,None,1246.523754011273,None,1251.549216973537,1252.5492824760304,1252.5409491703667,None,,,,,,1001,001,2013_Jan_22_0820,TNT_test,2021.2.2,120.01213579135519,
belt,raft,boat,r,cond1,101,22,,,,,2,5,125,11,,,,,,,,,,,,,,,,,,,,,,,belt,raft,cond1,,,,,,,,,None,None,None,None,LEARNED,None,None,None,None,None,None,None,,,,,,1001,001,2013_Jan_22_0820,TNT_test,2021.2.2,120.01213579135519,
eagle,mouse,NA,NA,prac1,104,198,,,,,2,6,126,52,,,,,,,,,,,,,,,,,,,,,,,eagle,mouse,prac1,,,,,,,,,None,None,None,None,LEARNED,None,None,None,None,None,None,None,,,,,,1001,001,2013_Jan_22_0820,TNT_test,2021.2.2,120.01213579135519,
needle,chimney,structure,c,cond3,103,52,,,,,2,7,127,41,,,,,,,,,,,,,,,,,,,,,,,needle,chimney,cond3,,,,,,,,,None,None,None,None,LEARNED,None,None,None,None,None,None,None,,,,,,1001,001,2013_Jan_22_0820,TNT_test,2021.2.2,120.01213579135519,
mango,puppy,mammal,p,cond1,101,12,,,,,2,8,128,1,,,,,,,,,,,,,,,,,,,,,,,mango,puppy,cond1,,,,,,,,,None,None,None,None,LEARNED,None,None,None,None,None,None,None,,,,,,1001,001,2013_Jan_22_0820,TNT_test,2021.2.2,120.01213579135519,
banana,flag,symbol,f,cond3,103,45,,,,,2,9,129,34,,,,,,,,,,,,,,,,,,,,,,,banana,flag,cond3,,,,,,,,,1254.7244633096989,1255.2245374150543,1255.2161564163307,None,1,f,1255.2161564163307,None,1257.4663542066937,1258.4664366130555,1258.4580586328811,None,2.2071234112254388,,,,,1001,001,2013_Jan_22_0820,TNT_test,2021.2.2,120.01213579135519,
bone,desert,NA,NA,prac1,104,198,,,,,2,10,130,49,,,,,,,,,,,,,,,,,,,,,,,bone,desert,prac1,,,,,,,,,1260.4748960940287,1260.9749738216415,1260.966595841467,None,1,f,1260.966595841467,None,1264.2251851954707,1265.225341858115,1265.2170013079367,None,3.2245292649740804,,,,,1001,001,2013_Jan_22_0820,TNT_test,2021.2.2,120.01213579135519,
sand,leaves,plant,l,cond1,101,17,,,,,2,11,131,6,,,,,,,,,,,,,,,,,,,,,,,sand,leaves,cond1,,,,,,,,,1267.2339257032681,1267.7337954529194,1267.7255167829762,None,1,f,1267.7255167829762,None,1269.9674582406515,1270.9674805779068,1270.9591370091803,None,2.2094190170337242,,,,,1001,001,2013_Jan_22_0820,TNT_test,2021.2.2,120.01213579135519,
bag,cloak,clothing,c,cond2,102,40,,,,,2,12,132,29,,,,,,,,,,,,,,,,,,,,,,,bag,cloak,cond2,,,,,,,,,None,None,None,None,LEARNED,None,None,None,None,None,None,None,,,,,,1001,001,2013_Jan_22_0820,TNT_test,2021.2.2,120.01213579135519,
hook,lamp,tool,l,cond3,103,55,,,,,2,13,133,44,,,,,,,,,,,,,,,,,,,,,,,hook,lamp,cond3,,,,,,,,,1273.0176545821105,1273.5177072557744,1273.5093706297084,None,1,f,1273.5093706297084,None,1275.3928474296008,1276.3928643334693,1276.3845977377187,None,1.8494251627980702,,,,,1001,001,2013_Jan_22_0820,TNT_test,2021.2.2,120.01213579135519,
basket,tractor,vehicle,t,cond2,102,32,,,,,2,14,134,21,,,,,,,,,,,,,,,,,,,,,,,basket,tractor,cond2,,,,,,,,,1278.4013926373382,1278.901479420595,1278.8930700475203,None,1,f,1278.8930700475203,None,1283.1934979870812,1284.1935269651422,1284.1852706324553,None,4.257568782900307,,,,,1001,001,2013_Jan_22_0820,TNT_test,2021.2.2,120.01213579135519,
gun,lime,fruit,l,cond2,102,41,,,,,2,15,135,30,,,,,,,,,,,,,,,,,,,,,,,gun,lime,cond2,,,,,,,,,None,None,None,None,LEARNED,None,None,None,None,None,None,None,,,,,,1001,001,2013_Jan_22_0820,TNT_test,2021.2.2,120.01213579135519,
dentist,letter,document,l,cond2,102,37,,,,,2,16,136,26,,,,,,,,,,,,,,,,,,,,,,,dentist,letter,cond2,,,,,,,,,1286.2437456438574,1286.7437421725272,1286.735416111379,None,1,f,1286.735416111379,None,1289.2773499321274,1290.2774371681671,1290.2607639160342,None,2.495068145231926,,,,,1001,001,2013_Jan_22_0820,TNT_test,2021.2.2,120.01213579135519,
rope,throat,organ,t,cond1,101,20,,,,,2,17,137,9,,,,,,,,,,,,,,,,,,,,,,,rope,throat,cond1,,,,,,,,,None,None,None,None,LEARNED,None,None,None,None,None,None,None,,,,,,1001,001,2013_Jan_22_0820,TNT_test,2021.2.2,120.01213579135519,
string,glass,container ,g,cond2,102,29,,,,,2,18,138,18,,,,,,,,,,,,,,,,,,,,,,,string,glass,cond2,,,,,,,,,None,None,None,None,LEARNED,None,None,None,None,None,None,None,,,,,,1001,001,2013_Jan_22_0820,TNT_test,2021.2.2,120.01213579135519,
candle,cottage,building,c,cond2,102,35,,,,,2,19,139,24,,,,,,,,,,,,,,,,,,,,,,,candle,cottage,cond2,,,,,,,,,1292.3609335282508,1292.860999181671,1292.8525825640809,None,1,f,1292.8525825640809,None,1297.8197096700087,1298.8197851337109,1298.8031369355276,None,4.921697957439392,,,,,1001,001,2013_Jan_22_0820,TNT_test,2021.2.2,120.01213579135519,
bike,zoo,facility,z,cond2,102,39,,,,,2,20,140,28,,,,,,,,,,,,,,,,,,,,,,,bike,zoo,cond2,,,,,,,,,None,None,None,None,LEARNED,None,None,None,None,None,None,None,,,,,,1001,001,2013_Jan_22_0820,TNT_test,2021.2.2,120.01213579135519,
actor,map,representation,m,cond3,103,47,,,,,2,21,141,36,,,,,,,,,,,,,,,,,,,,,,,actor,map,cond3,,,,,,,,,1300.861591420803,1301.3616760910763,1301.3533494262192,None,1,f,1301.3533494262192,None,1302.8701800956333,1303.8702126959524,1303.8618851255305,None,1.4767238248869035,,,,,1001,001,2013_Jan_22_0820,TNT_test,2021.2.2,120.01213579135519,
tower,owl,NA,NA,prac1,104,198,,,,,2,22,142,53,,,,,,,,,,,,,,,,,,,,,,,tower,owl,prac1,,,,,,,,,None,None,None,None,LEARNED,None,None,None,None,None,None,None,,,,,,1001,001,2013_Jan_22_0820,TNT_test,2021.2.2,120.01213579135519,
screw,beer,drink,b,cond2,102,33,,,,,2,23,143,22,,,,,,,,,,,,,,,,,,,,,,,screw,beer,cond2,,,,,,,,,1305.9204084337025,1306.4204626166402,1306.4120948995287,None,1,f,1306.4120948995287,None,1308.687344525908,1309.6873943319515,1309.6790661578198,None,2.2418835015523655,,,,,1001,001,2013_Jan_22_0820,TNT_test,2021.2.2,120.01213579135519,
swan,groom,NA,NA,prac1,104,198,,,,,2,24,144,51,,,,,,,,,,,,,,,,,,,,,,,swan,groom,prac1,,,,,,,,,1311.6958559259074,1312.1959421054553,1312.1875810291494,None,no resp,None,1312.1875810291494,None,1317.2130358413342,1318.213099532698,1318.2046980078485,None,,,,,,1001,001,2013_Jan_22_0820,TNT_test,2021.2.2,120.01213579135519,
crown,duck,bird,d,cond3,103,53,,,,,2,25,145,42,,,,,,,,,,,,,,,,,,,,,,,crown,duck,cond3,,,,,,,,,None,None,None,None,LEARNED,None,None,None,None,None,None,None,,,,,,1001,001,2013_Jan_22_0820,TNT_test,2021.2.2,120.01213579135519,
pin,vase,container,v,cond1,101,16,,,,,2,26,146,5,,,,,,,,,,,,,,,,,,,,,,,pin,vase,cond1,,,,,,,,,1320.2633248522188,1320.7632625192018,1320.754962719422,None,no resp,None,1320.754962719422,None,1325.7803988166079,1326.7805008435325,1326.7721458043234,None,,,,,,1001,001,2013_Jan_22_0820,TNT_test,2021.2.2,120.01213579135519,
shark,cave,place,c,cond3,103,46,,,,,2,27,147,35,,,,,,,,,,,,,,,,,,,,,,,shark,cave,cond3,,,,,,,,,None,None,None,None,LEARNED,None,None,None,None,None,None,None,,,,,,1001,001,2013_Jan_22_0820,TNT_test,2021.2.2,120.01213579135519,
menu,smoke,gas,s,cond1,101,21,,,,,2,28,148,10,,,,,,,,,,,,,,,,,,,,,,,menu,smoke,cond1,,,,,,,,,None,None,None,None,LEARNED,None,None,None,None,None,None,None,,,,,,1001,001,2013_Jan_22_0820,TNT_test,2021.2.2,120.01213579135519,
otter,tomb,location,t,cond1,101,15,,,,,2,29,149,4,,,,,,,,,,,,,,,,,,,,,,,otter,tomb,cond1,,,,,,,,,None,None,None,None,LEARNED,None,None,None,None,None,None,None,,,,,,1001,001,2013_Jan_22_0820,TNT_test,2021.2.2,120.01213579135519,
barn,fence,NA,NA,prac2,104,198,,,,,2,30,150,54,,,,,,,,,,,,,,,,,,,,,,,barn,fence,prac2,,,,,,,,,1328.9223221931798,1329.4223627926522,1329.4057133870492,None,no resp,None,1329.4057133870492,None,1334.4310652667446,1335.431196573585,1335.4228850014679,None,,,,,,1001,001,2013_Jan_22_0820,TNT_test,2021.2.2,120.01213579135519,
skirt,computer,machine,c,cond3,103,50,,,,,2,31,151,39,,,,,,,,,,,,,,,,,,,,,,,skirt,computer,cond3,,,,,,,,,None,None,None,None,LEARNED,None,None,None,None,None,None,None,,,,,,1001,001,2013_Jan_22_0820,TNT_test,2021.2.2,120.01213579135519,
dove,badge,symbol,b,cond2,102,28,,,,,2,32,152,17,,,,,,,,,,,,,,,,,,,,,,,dove,badge,cond2,,,,,,,,,None,None,None,None,LEARNED,None,None,None,None,None,None,None,,,,,,1001,001,2013_Jan_22_0820,TNT_test,2021.2.2,120.01213579135519,
tent,lion,mammal,l,cond1,101,24,,,,,2,33,153,13,,,,,,,,,,,,,,,,,,,,,,,tent,lion,cond1,,,,,,,,,None,None,None,None,LEARNED,None,None,None,None,None,None,None,,,,,,1001,001,2013_Jan_22_0820,TNT_test,2021.2.2,120.01213579135519,
sparrow,finger,NA,NA,prac1,104,198,,,,,2,34,154,50,,,,,,,,,,,,,,,,,,,,,,,sparrow,finger,prac1,,,,,,,,,None,None,None,None,LEARNED,None,None,None,None,None,None,None,,,,,,1001,001,2013_Jan_22_0820,TNT_test,2021.2.2,120.01213579135519,
furnace,suit,clothing,s,cond2,102,38,,,,,2,35,155,27,,,,,,,,,,,,,,,,,,,,,,,furnace,suit,cond2,,,,,,,,,1337.6063912925756,1338.1063528060877,1338.098077154692,None,1,f,1338.098077154692,None,1341.0483661957633,1342.0484120776937,1342.0400999018666,None,2.9070410954191175,,,,,1001,001,2013_Jan_22_0820,TNT_test,2021.2.2,120.01213579135519,
ocean,teeth,tissue,t,cond1,101,14,,,,,2,36,156,3,,,,,,,,,,,,,,,,,,,,,,,ocean,teeth,cond1,,,,,,,,,None,None,None,None,LEARNED,None,None,None,None,None,None,None,,,,,,1001,001,2013_Jan_22_0820,TNT_test,2021.2.2,120.01213579135519,
lemonade,teacher,profession,t,cond1,101,13,,,,,2,37,157,2,,,,,,,,,,,,,,,,,,,,,,,lemonade,teacher,cond1,,,,,,,,,1344.1068454331325,1344.606957270339,1344.59029367756,None,1,f,1344.59029367756,None,1346.4987616406534,1347.49880601331,1347.490556321428,None,1.870620199943005,,,,,1001,001,2013_Jan_22_0820,TNT_test,2021.2.2,120.01213579135519,
elephant,skin,tissue ,s,cond1,101,25,,,,,2,38,158,14,,,,,,,,,,,,,,,,,,,,,,,elephant,skin,cond1,,,,,,,,,None,None,None,None,LEARNED,None,None,None,None,None,None,None,,,,,,1001,001,2013_Jan_22_0820,TNT_test,2021.2.2,120.01213579135519,
tape,robin,bird,r,cond2,102,30,,,,,2,39,159,19,,,,,,,,,,,,,,,,,,,,,,,tape,robin,cond2,,,,,,,,,1349.548974282272,1350.0490713285926,1350.0407440600256,None,no resp,None,1350.0407440600256,None,1355.0661904202752,1356.0662507912366,1356.0578565109026,None,,,,,,1001,001,2013_Jan_22_0820,TNT_test,2021.2.2,120.01213579135519,
bucket,panda,mammal,p,cond3,103,56,,,,,2,40,160,45,,,,,,,,,,,,,,,,,,,,,,,bucket,panda,cond3,,,,,,,,,1358.0747748691383,1358.5748160723197,1358.5664552978687,None,no resp,None,1358.5664552978687,None,1363.5918947154578,1364.5919928182702,1364.58364713656,None,,,,,,1001,001,2013_Jan_22_0820,TNT_test,2021.2.2,120.01213579135519,
kettle,snake,NA,NA,prac1,104,198,,,,,2,41,161,48,,,,,,,,,,,,,,,,,,,,,,,kettle,snake,prac1,,,,,,,,,None,None,None,None,LEARNED,None,None,None,None,None,None,None,,,,,,1001,001,2013_Jan_22_0820,TNT_test,2021.2.2,120.01213579135519,
cloud,rabbit,mammal,r,cond2,102,27,,,,,2,42,162,16,,,,,,,,,,,,,,,,,,,,,,,cloud,rabbit,cond2,,,,,,,,,None,None,None,None,LEARNED,None,None,None,None,None,None,None,,,,,,1001,001,2013_Jan_22_0820,TNT_test,2021.2.2,120.01213579135519,
hawk,nectar,flower,n,cond2,102,42,,,,,2,43,163,31,,,,,,,,,,,,,,,,,,,,,,,hawk,nectar,cond2,,,,,,,,,None,None,None,None,LEARNED,None,None,None,None,None,None,None,,,,,,1001,001,2013_Jan_22_0820,TNT_test,2021.2.2,120.01213579135519,
trolley,acorn,nut,a,cond3,103,43,,,,,2,44,164,32,,,,,,,,,,,,,,,,,,,,,,,trolley,acorn,cond3,,,,,,,,,1366.725475127013,1367.2254834280202,1367.2172144174301,None,no resp,None,1367.2172144174301,None,1372.2425596563198,1373.2426242532483,1373.2260249555438,None,,,,,,1001,001,2013_Jan_22_0820,TNT_test,2021.2.2,120.01213579135519,
island,goggles,NA,NA,prac2,104,198,,,,,2,45,165,58,,,,,,,,,,,,,,,,,,,,,,,island,goggles,prac2,,,,,,,,,1375.2428711704806,1375.7428604546349,1375.7345654845321,None,1,f,1375.7345654845321,None,1380.2182947557858,1381.218356334166,1381.210010350601,None,4.437498094541297,,,,,1001,001,2013_Jan_22_0820,TNT_test,2021.2.2,120.01213579135519,
pickle,toilet,facility,t,cond3,103,51,,,,,2,46,166,40,,,,,,,,,,,,,,,,,,,,,,,pickle,toilet,cond3,,,,,,,,,None,None,None,None,LEARNED,None,None,None,None,None,None,None,,,,,,1001,001,2013_Jan_22_0820,TNT_test,2021.2.2,120.01213579135519,
yogurt,shovel,tool,s,cond1,101,19,,,,,2,47,167,8,,,,,,,,,,,,,,,,,,,,,,,yogurt,shovel,cond1,,,,,,,,,1383.2685484496587,1383.7685787860664,1383.7602530267732,None,no resp,None,1383.7602530267732,None,1388.785668899688,1389.7857334966166,1389.777404115065,None,,,,,,1001,001,2013_Jan_22_0820,TNT_test,2021.2.2,120.01213579135519,
college,fog,gas,f,cond3,103,48,,,,,2,48,168,37,,,,,,,,,,,,,,,,,,,,,,,college,fog,cond3,,,,,,,,,None,None,None,None,LEARNED,None,None,None,None,None,None,None,,,,,,1001,001,2013_Jan_22_0820,TNT_test,2021.2.2,120.01213579135519,
gum,moon,satellite,m,cond3,103,44,,,,,2,49,169,33,,,,,,,,,,,,,,,,,,,,,,,gum,moon,cond3,,,,,,,,,None,None,None,None,LEARNED,None,None,None,None,None,None,None,,,,,,1001,001,2013_Jan_22_0820,TNT_test,2021.2.2,120.01213579135519,
bride,herring,fish,h,cond2,102,31,,,,,2,50,170,20,,,,,,,,,,,,,,,,,,,,,,,bride,herring,cond2,,,,,,,,,None,None,None,None,LEARNED,None,None,None,None,None,None,None,,,,,,1001,001,2013_Jan_22_0820,TNT_test,2021.2.2,120.01213579135519,
candy,rat,NA,NA,prac2,104,198,,,,,2,51,171,55,,,,,,,,,,,,,,,,,,,,,,,candy,rat,prac2,,,,,,,,,None,None,None,None,LEARNED,None,None,None,None,None,None,None,,,,,,1001,001,2013_Jan_22_0820,TNT_test,2021.2.2,120.01213579135519,
paper,sausage,NA,NA,prac2,104,198,,,,,2,52,172,59,,,,,,,,,,,,,,,,,,,,,,,paper,sausage,prac2,,,,,,,,,None,None,None,None,LEARNED,None,None,None,None,None,None,None,,,,,,1001,001,2013_Jan_22_0820,TNT_test,2021.2.2,120.01213579135519,
river,orchard,location,o,cond3,103,57,,,,,2,53,173,46,,,,,,,,,,,,,,,,,,,,,,,river,orchard,cond3,,,,,,,,,1392.0026134589207,1392.50265013428,1392.4943098859558,None,no resp,None,1392.4943098859558,None,1397.5196741416985,1398.5197456812875,1398.5031494021314,None,,,,,,1001,001,2013_Jan_22_0820,TNT_test,2021.2.2,120.01213579135519,
soldier,bean,vegetable,b,cond1,101,11,,,,,2,54,174,0,,,,,,,,,,,,,,,,,,,,,,,soldier,bean,cond1,,,,,,,,,1400.5199548666687,1401.0200286701693,1401.0116863088615,None,1,f,1401.0116863088615,None,1403.0368525478507,1404.0369473302599,1404.0286064782267,None,1.9757492866419852,,,,,1001,001,2013_Jan_22_0820,TNT_test,2021.2.2,120.01213579135519,
oyster,umbrella,tool,u,cond1,101,26,,,,,2,55,175,15,,,,,,,,,,,,,,,,,,,,,,,oyster,umbrella,cond1,,,,,,,,,1406.0453805498646,1406.5454863499745,1406.5371584776976,None,1,f,1406.5371584776976,None,1408.7706941845554,1409.7707461035825,1409.762401931146,None,2.1941862160419987,,,,,1001,001,2013_Jan_22_0820,TNT_test,2021.2.2,120.01213579135519,
poster,butter,dairy,b,cond2,102,36,,,,,2,56,176,25,,,,,,,,,,,,,,,,,,,,,,,poster,butter,cond2,,,,,,,,,None,None,None,None,LEARNED,None,None,None,None,None,None,None,,,,,,1001,001,2013_Jan_22_0820,TNT_test,2021.2.2,120.01213579135519,
jeep,tub,NA,NA,prac2,104,198,,,,,2,57,177,57,,,,,,,,,,,,,,,,,,,,,,,jeep,tub,prac2,,,,,,,,,1411.8209318801237,1412.3209742907238,1412.312646116592,None,no resp,None,1412.312646116592,None,1417.3380296910418,1418.3381356420796,1418.329797204885,None,,,,,,1001,001,2013_Jan_22_0820,TNT_test,2021.2.2,120.01213579135519,
turtle,ribbon,fabric,r,cond1,101,23,,,,,2,58,178,12,,,,,,,,,,,,,,,,,,,,,,,turtle,ribbon,cond1,,,,,,,,,1420.3466446272405,1420.8466076500272,1420.8383307912127,None,no resp,None,1420.8383307912127,None,1425.8637696050919,1426.8638366168598,1426.855489425875,None,,,,,,1001,001,2013_Jan_22_0820,TNT_test,2021.2.2,120.01213579135519,
jug,beaver,anmial,b,cond3,103,54,,,,,2,59,179,43,,,,,,,,,,,,,,,,,,,,,,,jug,beaver,cond3,,,,,,,,,1428.8723404704888,1429.3723810699603,1429.3640571217957,None,no resp,None,1429.3640571217957,None,1434.3894859744669,1435.3894968412396,1435.3811689689637,None,,,,,,1001,001,2013_Jan_22_0820,TNT_test,2021.2.2,120.01213579135519,
turtle,ribbon,fabric,r,cond1,101,23,,,,,3,0,180,12,,,,,,,,,,,,,,,,,,,,,,,turtle,ribbon,cond1,,,,,,,,,1437.398003713418,1437.898118267317,1437.8897783208477,None,no resp,None,1437.8897783208477,None,1442.9151416710256,1443.9152759964145,1443.8986030461374,None,,,,,,1001,001,2013_Jan_22_0820,TNT_test,2021.2.2,120.01213579135519,
egg,snail,anmial,s,cond1,101,18,,,,,3,1,181,7,,,,,,,,,,,,,,,,,,,,,,,egg,snail,cond1,,,,,,,,,None,None,None,None,LEARNED,None,None,None,None,None,None,None,,,,,,1001,001,2013_Jan_22_0820,TNT_test,2021.2.2,120.01213579135519,
tower,owl,NA,NA,prac1,104,198,,,,,3,2,182,53,,,,,,,,,,,,,,,,,,,,,,,tower,owl,prac1,,,,,,,,,None,None,None,None,LEARNED,None,None,None,None,None,None,None,,,,,,1001,001,2013_Jan_22_0820,TNT_test,2021.2.2,120.01213579135519,
sand,leaves,plant,l,cond1,101,17,,,,,3,3,183,6,,,,,,,,,,,,,,,,,,,,,,,sand,leaves,cond1,,,,,,,,,None,None,None,None,LEARNED,None,None,None,None,None,None,None,,,,,,1001,001,2013_Jan_22_0820,TNT_test,2021.2.2,120.01213579135519,
gum,moon,satellite,m,cond3,103,44,,,,,3,4,184,33,,,,,,,,,,,,,,,,,,,,,,,gum,moon,cond3,,,,,,,,,None,None,None,None,LEARNED,None,None,None,None,None,None,None,,,,,,1001,001,2013_Jan_22_0820,TNT_test,2021.2.2,120.01213579135519,
needle,chimney,structure,c,cond3,103,52,,,,,3,5,185,41,,,,,,,,,,,,,,,,,,,,,,,needle,chimney,cond3,,,,,,,,,None,None,None,None,LEARNED,None,None,None,None,None,None,None,,,,,,1001,001,2013_Jan_22_0820,TNT_test,2021.2.2,120.01213579135519,
jeep,tub,NA,NA,prac2,104,198,,,,,3,6,186,57,,,,,,,,,,,,,,,,,,,,,,,jeep,tub,prac2,,,,,,,,,1446.123736020726,1446.6238327651918,1446.6154258069555,None,1,f,1446.6154258069555,None,1451.1074720837123,1452.1076106350692,1452.0992924221464,None,4.4507455964667315,,,,,1001,001,2013_Jan_22_0820,TNT_test,2021.2.2,120.01213579135519,
bike,zoo,facility,z,cond2,102,39,,,,,3,7,187,28,,,,,,,,,,,,,,,,,,,,,,,bike,zoo,cond2,,,,,,,,,None,None,None,None,LEARNED,None,None,None,None,None,None,None,,,,,,1001,001,2013_Jan_22_0820,TNT_test,2021.2.2,120.01213579135519,
bone,desert,NA,NA,prac1,104,198,,,,,3,8,188,49,,,,,,,,,,,,,,,,,,,,,,,bone,desert,prac1,,,,,,,,,None,None,None,None,LEARNED,None,None,None,None,None,None,None,,,,,,1001,001,2013_Jan_22_0820,TNT_test,2021.2.2,120.01213579135519,
screw,beer,drink,b,cond2,102,33,,,,,3,9,189,22,,,,,,,,,,,,,,,,,,,,,,,screw,beer,cond2,,,,,,,,,None,None,None,None,LEARNED,None,None,None,None,None,None,None,,,,,,1001,001,2013_Jan_22_0820,TNT_test,2021.2.2,120.01213579135519,
banana,flag,symbol,f,cond3,103,45,,,,,3,10,190,34,,,,,,,,,,,,,,,,,,,,,,,banana,flag,cond3,,,,,,,,,None,None,None,None,LEARNED,None,None,None,None,None,None,None,,,,,,1001,001,2013_Jan_22_0820,TNT_test,2021.2.2,120.01213579135519,
basket,tractor,vehicle,t,cond2,102,32,,,,,3,11,191,21,,,,,,,,,,,,,,,,,,,,,,,basket,tractor,cond2,,,,,,,,,None,None,None,None,LEARNED,None,None,None,None,None,None,None,,,,,,1001,001,2013_Jan_22_0820,TNT_test,2021.2.2,120.01213579135519,
rug,coconut,fruit,c,cond3,103,49,,,,,3,12,192,38,,,,,,,,,,,,,,,,,,,,,,,rug,coconut,cond3,,,,,,,,,1454.3244718823753,1454.8245170096689,1454.816189439247,None,no resp,None,1454.816189439247,None,1459.841547959748,1460.8417332986,1460.8333580351182,None,,,,,,1001,001,2013_Jan_22_0820,TNT_test,2021.2.2,120.01213579135519,
crown,duck,bird,d,cond3,103,53,,,,,3,13,193,42,,,,,,,,,,,,,,,,,,,,,,,crown,duck,cond3,,,,,,,,,None,None,None,None,LEARNED,None,None,None,None,None,None,None,,,,,,1001,001,2013_Jan_22_0820,TNT_test,2021.2.2,120.01213579135519,
trolley,acorn,nut,a,cond3,103,43,,,,,3,14,194,32,,,,,,,,,,,,,,,,,,,,,,,trolley,acorn,cond3,,,,,,,,,1462.891791390557,1463.3919050388922,1463.3835856185497,None,0,j,1463.3835856185497,None,1466.5338347544148,1467.5339467425483,1467.5255953255974,None,3.1061813525575417,,,,,1001,001,2013_Jan_22_0820,TNT_test,2021.2.2,120.01213579135519,
sparrow,finger,NA,NA,prac1,104,198,,,,,3,15,195,50,,,,,,,,,,,,,,,,,,,,,,,sparrow,finger,prac1,,,,,,,,,None,None,None,None,LEARNED,None,None,None,None,None,None,None,,,,,,1001,001,2013_Jan_22_0820,TNT_test,2021.2.2,120.01213579135519,
tent,lion,mammal,l,cond1,101,24,,,,,3,16,196,13,,,,,,,,,,,,,,,,,,,,,,,tent,lion,cond1,,,,,,,,,None,None,None,None,LEARNED,None,None,None,None,None,None,None,,,,,,1001,001,2013_Jan_22_0820,TNT_test,2021.2.2,120.01213579135519,
jug,beaver,anmial,b,cond3,103,54,,,,,3,17,197,43,,,,,,,,,,,,,,,,,,,,,,,jug,beaver,cond3,,,,,,,,,1469.6257531654755,1470.1258182151869,1470.117414577353,None,1,f,1470.117414577353,None,1473.7343716937467,1474.7345193007468,1474.726205615646,None,3.5722189135585722,,,,,1001,001,2013_Jan_22_0820,TNT_test,2021.2.2,120.01213579135519,
menu,smoke,gas,s,cond1,101,21,,,,,3,18,198,10,,,,,,,,,,,,,,,,,,,,,,,menu,smoke,cond1,,,,,,,,,None,None,None,None,LEARNED,None,None,None,None,None,None,None,,,,,,1001,001,2013_Jan_22_0820,TNT_test,2021.2.2,120.01213579135519,
tape,robin,bird,r,cond2,102,30,,,,,3,19,199,19,,,,,,,,,,,,,,,,,,,,,,,tape,robin,cond2,,,,,,,,,1476.7846102948788,1477.284738734099,1477.2764135785155,None,no resp,None,1477.2764135785155,None,1482.301808019739,1483.3018249236075,1483.2934976550405,None,,,,,,1001,001,2013_Jan_22_0820,TNT_test,2021.2.2,120.01213579135519,
barn,fence,NA,NA,prac2,104,198,,,,,3,20,200,54,,,,,,,,,,,,,,,,,,,,,,,barn,fence,prac2,,,,,,,,,1485.3103471903805,1485.810397147351,1485.802089801201,None,1,f,1485.802089801201,None,1488.3439846826795,1489.3439898142115,1489.3357407260391,None,2.4951273087744994,,,,,1001,001,2013_Jan_22_0820,TNT_test,2021.2.2,120.01213579135519,
college,fog,gas,f,cond3,103,48,,,,,3,21,201,37,,,,,,,,,,,,,,,,,,,,,,,college,fog,cond3,,,,,,,,,None,None,None,None,LEARNED,None,None,None,None,None,None,None,,,,,,1001,001,2013_Jan_22_0820,TNT_test,2021.2.2,120.01213579135519,
hook,lamp,tool,l,cond3,103,55,,,,,3,22,202,44,,,,,,,,,,,,,,,,,,,,,,,hook,lamp,cond3,,,,,,,,,None,None,None,None,LEARNED,None,None,None,None,None,None,None,,,,,,1001,001,2013_Jan_22_0820,TNT_test,2021.2.2,120.01213579135519,
furnace,suit,clothing,s,cond2,102,38,,,,,3,23,203,27,,,,,,,,,,,,,,,,,,,,,,,furnace,suit,cond2,,,,,,,,,None,None,None,None,LEARNED,None,None,None,None,None,None,None,,,,,,1001,001,2013_Jan_22_0820,TNT_test,2021.2.2,120.01213579135519,
bucket,panda,mammal,p,cond3,103,56,,,,,3,24,204,45,,,,,,,,,,,,,,,,,,,,,,,bucket,panda,cond3,,,,,,,,,1491.4859041351392,1491.985948055013,1491.9692690676393,None,no resp,None,1491.9692690676393,None,1496.9947112019217,1497.9947450096606,1497.9864231744796,None,,,,,,1001,001,2013_Jan_22_0820,TNT_test,2021.2.2,120.01213579135519,
pillow,storm,climate,s,cond3,103,58,,,,,3,25,205,47,,,,,,,,,,,,,,,,,,,,,,,pillow,storm,cond3,,,,,,,,,None,None,None,None,LEARNED,None,None,None,None,None,None,None,,,,,,1001,001,2013_Jan_22_0820,TNT_test,2021.2.2,120.01213579135519,
bag,cloak,clothing,c,cond2,102,40,,,,,3,26,206,29,,,,,,,,,,,,,,,,,,,,,,,bag,cloak,cond2,,,,,,,,,None,None,None,None,LEARNED,None,None,None,None,None,None,None,,,,,,1001,001,2013_Jan_22_0820,TNT_test,2021.2.2,120.01213579135519,
string,glass,container ,g,cond2,102,29,,,,,3,27,207,18,,,,,,,,,,,,,,,,,,,,,,,string,glass,cond2,,,,,,,,,None,None,None,None,LEARNED,None,None,None,None,None,None,None,,,,,,1001,001,2013_Jan_22_0820,TNT_test,2021.2.2,120.01213579135519,
actor,map,representation,m,cond3,103,47,,,,,3,28,208,36,,,,,,,,,,,,,,,,,,,,,,,actor,map,cond3,,,,,,,,,None,None,None,None,LEARNED,None,None,None,None,None,None,None,,,,,,1001,001,2013_Jan_22_0820,TNT_test,2021.2.2,120.01213579135519,
island,goggles,NA,NA,prac2,104,198,,,,,3,29,209,58,,,,,,,,,,,,,,,,,,,,,,,island,goggles,prac2,,,,,,,,,None,None,None,None,LEARNED,None,None,None,None,None,None,None,,,,,,1001,001,2013_Jan_22_0820,TNT_test,2021.2.2,120.01213579135519,
poster,butter,dairy,b,cond2,102,36,,,,,3,30,210,25,,,,,,,,,,,,,,,,,,,,,,,poster,butter,cond2,,,,,,,,,None,None,None,None,LEARNED,None,None,None,None,None,None,None,,,,,,1001,001,2013_Jan_22_0820,TNT_test,2021.2.2,120.01213579135519,
oyster,umbrella,tool,u,cond1,101,26,,,,,3,31,211,15,,,,,,,,,,,,,,,,,,,,,,,oyster,umbrella,cond1,,,,,,,,,None,None,None,None,LEARNED,None,None,None,None,None,None,None,,,,,,1001,001,2013_Jan_22_0820,TNT_test,2021.2.2,120.01213579135519,
skirt,computer,machine,c,cond3,103,50,,,,,3,32,212,39,,,,,,,,,,,,,,,,,,,,,,,skirt,computer,cond3,,,,,,,,,None,None,None,None,LEARNED,None,None,None,None,None,None,None,,,,,,1001,001,2013_Jan_22_0820,TNT_test,2021.2.2,120.01213579135519,
dolphin,grass,NA,NA,prac2,104,198,,,,,3,33,213,56,,,,,,,,,,,,,,,,,,,,,,,dolphin,grass,prac2,,,,,,,,,1500.3366499127187,1500.836696247431,1500.8283762233796,None,1,f,1500.8283762233796,None,1504.6454030078621,1505.6453882169762,1505.6371065284857,None,3.7724404146156303,,,,,1001,001,2013_Jan_22_0820,TNT_test,2021.2.2,120.01213579135519,
swan,groom,NA,NA,prac1,104,198,,,,,3,34,214,51,,,,,,,,,,,,,,,,,,,,,,,swan,groom,prac1,,,,,,,,,1507.653931311731,1508.1539827779752,1508.1456503778763,None,no resp,None,1508.1456503778763,None,1513.1710167466026,1514.171076815709,1514.1627954290725,None,,,,,,1001,001,2013_Jan_22_0820,TNT_test,2021.2.2,120.01213579135519,
candy,rat,NA,NA,prac2,104,198,,,,,3,35,215,55,,,,,,,,,,,,,,,,,,,,,,,candy,rat,prac2,,,,,,,,,None,None,None,None,LEARNED,None,None,None,None,None,None,None,,,,,,1001,001,2013_Jan_22_0820,TNT_test,2021.2.2,120.01213579135519,
dentist,letter,document,l,cond2,102,37,,,,,3,36,216,26,,,,,,,,,,,,,,,,,,,,,,,dentist,letter,cond2,,,,,,,,,None,None,None,None,LEARNED,None,None,None,None,None,None,None,,,,,,1001,001,2013_Jan_22_0820,TNT_test,2021.2.2,120.01213579135519,
pickle,toilet,facility,t,cond3,103,51,,,,,3,37,217,40,,,,,,,,,,,,,,,,,,,,,,,pickle,toilet,cond3,,,,,,,,,None,None,None,None,LEARNED,None,None,None,None,None,None,None,,,,,,1001,001,2013_Jan_22_0820,TNT_test,2021.2.2,120.01213579135519,
shark,cave,place,c,cond3,103,46,,,,,3,38,218,35,,,,,,,,,,,,,,,,,,,,,,,shark,cave,cond3,,,,,,,,,None,None,None,None,LEARNED,None,None,None,None,None,None,None,,,,,,1001,001,2013_Jan_22_0820,TNT_test,2021.2.2,120.01213579135519,
dove,badge,symbol,b,cond2,102,28,,,,,3,39,219,17,,,,,,,,,,,,,,,,,,,,,,,dove,badge,cond2,,,,,,,,,None,None,None,None,LEARNED,None,None,None,None,None,None,None,,,,,,1001,001,2013_Jan_22_0820,TNT_test,2021.2.2,120.01213579135519,
kettle,snake,NA,NA,prac1,104,198,,,,,3,40,220,48,,,,,,,,,,,,,,,,,,,,,,,kettle,snake,prac1,,,,,,,,,None,None,None,None,LEARNED,None,None,None,None,None,None,None,,,,,,1001,001,2013_Jan_22_0820,TNT_test,2021.2.2,120.01213579135519,
mango,puppy,mammal,p,cond1,101,12,,,,,3,41,221,1,,,,,,,,,,,,,,,,,,,,,,,mango,puppy,cond1,,,,,,,,,None,None,None,None,LEARNED,None,None,None,None,None,None,None,,,,,,1001,001,2013_Jan_22_0820,TNT_test,2021.2.2,120.01213579135519,
gun,lime,fruit,l,cond2,102,41,,,,,3,42,222,30,,,,,,,,,,,,,,,,,,,,,,,gun,lime,cond2,,,,,,,,,None,None,None,None,LEARNED,None,None,None,None,None,None,None,,,,,,1001,001,2013_Jan_22_0820,TNT_test,2021.2.2,120.01213579135519,
belt,raft,boat,r,cond1,101,22,,,,,3,43,223,11,,,,,,,,,,,,,,,,,,,,,,,belt,raft,cond1,,,,,,,,,None,None,None,None,LEARNED,None,None,None,None,None,None,None,,,,,,1001,001,2013_Jan_22_0820,TNT_test,2021.2.2,120.01213579135519,
pin,vase,container,v,cond1,101,16,,,,,3,44,224,5,,,,,,,,,,,,,,,,,,,,,,,pin,vase,cond1,,,,,,,,,1516.563025925404,1517.0630909751144,1517.0463181108953,None,1,f,1517.0463181108953,None,1519.5382034990407,1520.5382807738706,1520.530008442879,None,2.45005646194204,,,,,1001,001,2013_Jan_22_0820,TNT_test,2021.2.2,120.01213579135519,
ocean,teeth,tissue,t,cond1,101,14,,,,,3,45,225,3,,,,,,,,,,,,,,,,,,,,,,,ocean,teeth,cond1,,,,,,,,,None,None,None,None,LEARNED,None,None,None,None,None,None,None,,,,,,1001,001,2013_Jan_22_0820,TNT_test,2021.2.2,120.01213579135519,
hawk,nectar,flower,n,cond2,102,42,,,,,3,46,226,31,,,,,,,,,,,,,,,,,,,,,,,hawk,nectar,cond2,,,,,,,,,None,None,None,None,LEARNED,None,None,None,None,None,None,None,,,,,,1001,001,2013_Jan_22_0820,TNT_test,2021.2.2,120.01213579135519,
candle,cottage,building,c,cond2,102,35,,,,,3,47,227,24,,,,,,,,,,,,,,,,,,,,,,,candle,cottage,cond2,,,,,,,,,None,None,None,None,LEARNED,None,None,None,None,None,None,None,,,,,,1001,001,2013_Jan_22_0820,TNT_test,2021.2.2,120.01213579135519,
otter,tomb,location,t,cond1,101,15,,,,,3,48,228,4,,,,,,,,,,,,,,,,,,,,,,,otter,tomb,cond1,,,,,,,,,None,None,None,None,LEARNED,None,None,None,None,None,None,None,,,,,,1001,001,2013_Jan_22_0820,TNT_test,2021.2.2,120.01213579135519,
rope,throat,organ,t,cond1,101,20,,,,,3,49,229,9,,,,,,,,,,,,,,,,,,,,,,,rope,throat,cond1,,,,,,,,,None,None,None,None,LEARNED,None,None,None,None,None,None,None,,,,,,1001,001,2013_Jan_22_0820,TNT_test,2021.2.2,120.01213579135519,
bride,herring,fish,h,cond2,102,31,,,,,3,50,230,20,,,,,,,,,,,,,,,,,,,,,,,bride,herring,cond2,,,,,,,,,None,None,None,None,LEARNED,None,None,None,None,None,None,None,,,,,,1001,001,2013_Jan_22_0820,TNT_test,2021.2.2,120.01213579135519,
lemonade,teacher,profession,t,cond1,101,13,,,,,3,51,231,2,,,,,,,,,,,,,,,,,,,,,,,lemonade,teacher,cond1,,,,,,,,,None,None,None,None,LEARNED,None,None,None,None,None,None,None,,,,,,1001,001,2013_Jan_22_0820,TNT_test,2021.2.2,120.01213579135519,
eagle,mouse,NA,NA,prac1,104,198,,,,,3,52,232,52,,,,,,,,,,,,,,,,,,,,,,,eagle,mouse,prac1,,,,,,,,,None,None,None,None,LEARNED,None,None,None,None,None,None,None,,,,,,1001,001,2013_Jan_22_0820,TNT_test,2021.2.2,120.01213579135519,
soldier,bean,vegetable,b,cond1,101,11,,,,,3,53,233,0,,,,,,,,,,,,,,,,,,,,,,,soldier,bean,cond1,,,,,,,,,None,None,None,None,LEARNED,None,None,None,None,None,None,None,,,,,,1001,001,2013_Jan_22_0820,TNT_test,2021.2.2,120.01213579135519,
elephant,skin,tissue ,s,cond1,101,25,,,,,3,54,234,14,,,,,,,,,,,,,,,,,,,,,,,elephant,skin,cond1,,,,,,,,,None,None,None,None,LEARNED,None,None,None,None,None,None,None,,,,,,1001,001,2013_Jan_22_0820,TNT_test,2021.2.2,120.01213579135519,
paper,sausage,NA,NA,prac2,104,198,,,,,3,55,235,59,,,,,,,,,,,,,,,,,,,,,,,paper,sausage,prac2,,,,,,,,,None,None,None,None,LEARNED,None,None,None,None,None,None,None,,,,,,1001,001,2013_Jan_22_0820,TNT_test,2021.2.2,120.01213579135519,
yogurt,shovel,tool,s,cond1,101,19,,,,,3,56,236,8,,,,,,,,,,,,,,,,,,,,,,,yogurt,shovel,cond1,,,,,,,,,1523.0052130325203,1523.5052469911861,1523.4968696147216,None,1,f,1523.4968696147216,None,1526.2054683413162,1527.2055667459836,1527.1972177438702,None,2.6713513526565293,,,,,1001,001,2013_Jan_22_0820,TNT_test,2021.2.2,120.01213579135519,
cracker,rake,tool,r,cond2,102,34,,,,,3,57,237,23,,,,,,,,,,,,,,,,,,,,,,,cracker,rake,cond2,,,,,,,,,None,None,None,None,LEARNED,None,None,None,None,None,None,None,,,,,,1001,001,2013_Jan_22_0820,TNT_test,2021.2.2,120.01213579135519,
cloud,rabbit,mammal,r,cond2,102,27,,,,,3,58,238,16,,,,,,,,,,,,,,,,,,,,,,,cloud,rabbit,cond2,,,,,,,,,None,None,None,None,LEARNED,None,None,None,None,None,None,None,,,,,,1001,001,2013_Jan_22_0820,TNT_test,2021.2.2,120.01213579135519,
river,orchard,location,o,cond3,103,57,,,,,3,59,239,46,,,,,,,,,,,,,,,,,,,,,,,river,orchard,cond3,,,,,,,,,1529.3057387730387,1529.8057956726698,1529.797443953863,None,no resp,None,1529.797443953863,None,1534.8228894085487,1535.8229374034627,1535.8145603288522,None,,,,,,1001,001,2013_Jan_22_0820,TNT_test,2021.2.2,120.01213579135519,
poster,butter,dairy,b,cond2,102,36,,,,,4,0,240,25,,,,,,,,,,,,,,,,,,,,,,,poster,butter,cond2,,,,,,,,,None,None,None,None,LEARNED,None,None,None,None,None,None,None,,,,,,1001,001,2013_Jan_22_0820,TNT_test,2021.2.2,120.01213579135519,
sand,leaves,plant,l,cond1,101,17,,,,,4,1,241,6,,,,,,,,,,,,,,,,,,,,,,,sand,leaves,cond1,,,,,,,,,None,None,None,None,LEARNED,None,None,None,None,None,None,None,,,,,,1001,001,2013_Jan_22_0820,TNT_test,2021.2.2,120.01213579135519,
jug,beaver,anmial,b,cond3,103,54,,,,,4,2,242,43,,,,,,,,,,,,,,,,,,,,,,,jug,beaver,cond3,,,,,,,,,None,None,None,None,LEARNED,None,None,None,None,None,None,None,,,,,,1001,001,2013_Jan_22_0820,TNT_test,2021.2.2,120.01213579135519,
menu,smoke,gas,s,cond1,101,21,,,,,4,3,243,10,,,,,,,,,,,,,,,,,,,,,,,menu,smoke,cond1,,,,,,,,,None,None,None,None,LEARNED,None,None,None,None,None,None,None,,,,,,1001,001,2013_Jan_22_0820,TNT_test,2021.2.2,120.01213579135519,
tent,lion,mammal,l,cond1,101,24,,,,,4,4,244,13,,,,,,,,,,,,,,,,,,,,,,,tent,lion,cond1,,,,,,,,,None,None,None,None,LEARNED,None,None,None,None,None,None,None,,,,,,1001,001,2013_Jan_22_0820,TNT_test,2021.2.2,120.01213579135519,
barn,fence,NA,NA,prac2,104,198,,,,,4,5,245,54,,,,,,,,,,,,,,,,,,,,,,,barn,fence,prac2,,,,,,,,,None,None,None,None,LEARNED,None,None,None,None,None,None,None,,,,,,1001,001,2013_Jan_22_0820,TNT_test,2021.2.2,120.01213579135519,
screw,beer,drink,b,cond2,102,33,,,,,4,6,246,22,,,,,,,,,,,,,,,,,,,,,,,screw,beer,cond2,,,,,,,,,None,None,None,None,LEARNED,None,None,None,None,None,None,None,,,,,,1001,001,2013_Jan_22_0820,TNT_test,2021.2.2,120.01213579135519,
yogurt,shovel,tool,s,cond1,101,19,,,,,4,7,247,8,,,,,,,,,,,,,,,,,,,,,,,yogurt,shovel,cond1,,,,,,,,,None,None,None,None,LEARNED,None,None,None,None,None,None,None,,,,,,1001,001,2013_Jan_22_0820,TNT_test,2021.2.2,120.01213579135519,
candle,cottage,building,c,cond2,102,35,,,,,4,8,248,24,,,,,,,,,,,,,,,,,,,,,,,candle,cottage,cond2,,,,,,,,,None,None,None,None,LEARNED,None,None,None,None,None,None,None,,,,,,1001,001,2013_Jan_22_0820,TNT_test,2021.2.2,120.01213579135519,
lemonade,teacher,profession,t,cond1,101,13,,,,,4,9,249,2,,,,,,,,,,,,,,,,,,,,,,,lemonade,teacher,cond1,,,,,,,,,None,None,None,None,LEARNED,None,None,None,None,None,None,None,,,,,,1001,001,2013_Jan_22_0820,TNT_test,2021.2.2,120.01213579135519,
dove,badge,symbol,b,cond2,102,28,,,,,4,10,250,17,,,,,,,,,,,,,,,,,,,,,,,dove,badge,cond2,,,,,,,,,None,None,None,None,LEARNED,None,None,None,None,None,None,None,,,,,,1001,001,2013_Jan_22_0820,TNT_test,2021.2.2,120.01213579135519,
tape,robin,bird,r,cond2,102,30,,,,,4,11,251,19,,,,,,,,,,,,,,,,,,,,,,,tape,robin,cond2,,,,,,,,,1538.2898292135687,1538.7898308737695,1538.7732137666317,None,1,f,1538.7732137666317,None,1541.7150584194696,1542.715156522282,1542.7068452520198,None,2.898598216460414,,,,,1001,001,2013_Jan_22_0820,TNT_test,2021.2.2,120.01213579135519,
island,goggles,NA,NA,prac2,104,198,,,,,4,12,252,58,,,,,,,,,,,,,,,,,,,,,,,island,goggles,prac2,,,,,,,,,None,None,None,None,LEARNED,None,None,None,None,None,None,None,,,,,,1001,001,2013_Jan_22_0820,TNT_test,2021.2.2,120.01213579135519,
skirt,computer,machine,c,cond3,103,50,,,,,4,13,253,39,,,,,,,,,,,,,,,,,,,,,,,skirt,computer,cond3,,,,,,,,,None,None,None,None,LEARNED,None,None,None,None,None,None,None,,,,,,1001,001,2013_Jan_22_0820,TNT_test,2021.2.2,120.01213579135519,
pin,vase,container,v,cond1,101,16,,,,,4,14,254,5,,,,,,,,,,,,,,,,,,,,,,,pin,vase,cond1,,,,,,,,,None,None,None,None,LEARNED,None,None,None,None,None,None,None,,,,,,1001,001,2013_Jan_22_0820,TNT_test,2021.2.2,120.01213579135519,
egg,snail,anmial,s,cond1,101,18,,,,,4,15,255,7,,,,,,,,,,,,,,,,,,,,,,,egg,snail,cond1,,,,,,,,,None,None,None,None,LEARNED,None,None,None,None,None,None,None,,,,,,1001,001,2013_Jan_22_0820,TNT_test,2021.2.2,120.01213579135519,
bride,herring,fish,h,cond2,102,31,,,,,4,16,256,20,,,,,,,,,,,,,,,,,,,,,,,bride,herring,cond2,,,,,,,,,None,None,None,None,LEARNED,None,None,None,None,None,None,None,,,,,,1001,001,2013_Jan_22_0820,TNT_test,2021.2.2,120.01213579135519,
paper,sausage,NA,NA,prac2,104,198,,,,,4,17,257,59,,,,,,,,,,,,,,,,,,,,,,,paper,sausage,prac2,,,,,,,,,None,None,None,None,LEARNED,None,None,None,None,None,None,None,,,,,,1001,001,2013_Jan_22_0820,TNT_test,2021.2.2,120.01213579135519,
gum,moon,satellite,m,cond3,103,44,,,,,4,18,258,33,,,,,,,,,,,,,,,,,,,,,,,gum,moon,cond3,,,,,,,,,None,None,None,None,LEARNED,None,None,None,None,None,None,None,,,,,,1001,001,2013_Jan_22_0820,TNT_test,2021.2.2,120.01213579135519,
bag,cloak,clothing,c,cond2,102,40,,,,,4,19,259,29,,,,,,,,,,,,,,,,,,,,,,,bag,cloak,cond2,,,,,,,,,None,None,None,None,LEARNED,None,None,None,None,None,None,None,,,,,,1001,001,2013_Jan_22_0820,TNT_test,2021.2.2,120.01213579135519,
belt,raft,boat,r,cond1,101,22,,,,,4,20,260,11,,,,,,,,,,,,,,,,,,,,,,,belt,raft,cond1,,,,,,,,,None,None,None,None,LEARNED,None,None,None,None,None,None,None,,,,,,1001,001,2013_Jan_22_0820,TNT_test,2021.2.2,120.01213579135519,
furnace,suit,clothing,s,cond2,102,38,,,,,4,21,261,27,,,,,,,,,,,,,,,,,,,,,,,furnace,suit,cond2,,,,,,,,,None,None,None,None,LEARNED,None,None,None,None,None,None,None,,,,,,1001,001,2013_Jan_22_0820,TNT_test,2021.2.2,120.01213579135519,
jeep,tub,NA,NA,prac2,104,198,,,,,4,22,262,57,,,,,,,,,,,,,,,,,,,,,,,jeep,tub,prac2,,,,,,,,,None,None,None,None,LEARNED,None,None,None,None,None,None,None,,,,,,1001,001,2013_Jan_22_0820,TNT_test,2021.2.2,120.01213579135519,
oyster,umbrella,tool,u,cond1,101,26,,,,,4,23,263,15,,,,,,,,,,,,,,,,,,,,,,,oyster,umbrella,cond1,,,,,,,,,None,None,None,None,LEARNED,None,None,None,None,None,None,None,,,,,,1001,001,2013_Jan_22_0820,TNT_test,2021.2.2,120.01213579135519,
string,glass,container ,g,cond2,102,29,,,,,4,24,264,18,,,,,,,,,,,,,,,,,,,,,,,string,glass,cond2,,,,,,,,,None,None,None,None,LEARNED,None,None,None,None,None,None,None,,,,,,1001,001,2013_Jan_22_0820,TNT_test,2021.2.2,120.01213579135519,
cracker,rake,tool,r,cond2,102,34,,,,,4,25,265,23,,,,,,,,,,,,,,,,,,,,,,,cracker,rake,cond2,,,,,,,,,None,None,None,None,LEARNED,None,None,None,None,None,None,None,,,,,,1001,001,2013_Jan_22_0820,TNT_test,2021.2.2,120.01213579135519,
turtle,ribbon,fabric,r,cond1,101,23,,,,,4,26,266,12,,,,,,,,,,,,,,,,,,,,,,,turtle,ribbon,cond1,,,,,,,,,1545.3071061753153,1545.807045955281,1545.7987150644567,None,no resp,None,1545.7987150644567,None,1550.8242362846986,1551.8242749221135,1551.8159630481414,None,,,,,,1001,001,2013_Jan_22_0820,TNT_test,2021.2.2,120.01213579135519,
gun,lime,fruit,l,cond2,102,41,,,,,4,27,267,30,,,,,,,,,,,,,,,,,,,,,,,gun,lime,cond2,,,,,,,,,None,None,None,None,LEARNED,None,None,None,None,None,None,None,,,,,,1001,001,2013_Jan_22_0820,TNT_test,2021.2.2,120.01213579135519,
hawk,nectar,flower,n,cond2,102,42,,,,,4,28,268,31,,,,,,,,,,,,,,,,,,,,,,,hawk,nectar,cond2,,,,,,,,,None,None,None,None,LEARNED,None,None,None,None,None,None,None,,,,,,1001,001,2013_Jan_22_0820,TNT_test,2021.2.2,120.01213579135519,
otter,tomb,location,t,cond1,101,15,,,,,4,29,269,4,,,,,,,,,,,,,,,,,,,,,,,otter,tomb,cond1,,,,,,,,,None,None,None,None,LEARNED,None,None,None,None,None,None,None,,,,,,1001,001,2013_Jan_22_0820,TNT_test,2021.2.2,120.01213579135519,
sparrow,finger,NA,NA,prac1,104,198,,,,,4,30,270,50,,,,,,,,,,,,,,,,,,,,,,,sparrow,finger,prac1,,,,,,,,,None,None,None,None,LEARNED,None,None,None,None,None,None,None,,,,,,1001,001,2013_Jan_22_0820,TNT_test,2021.2.2,120.01213579135519,
candy,rat,NA,NA,prac2,104,198,,,,,4,31,271,55,,,,,,,,,,,,,,,,,,,,,,,candy,rat,prac2,,,,,,,,,None,None,None,None,LEARNED,None,None,None,None,None,None,None,,,,,,1001,001,2013_Jan_22_0820,TNT_test,2021.2.2,120.01213579135519,
tower,owl,NA,NA,prac1,104,198,,,,,4,32,272,53,,,,,,,,,,,,,,,,,,,,,,,tower,owl,prac1,,,,,,,,,None,None,None,None,LEARNED,None,None,None,None,None,None,None,,,,,,1001,001,2013_Jan_22_0820,TNT_test,2021.2.2,120.01213579135519,
mango,puppy,mammal,p,cond1,101,12,,,,,4,33,273,1,,,,,,,,,,,,,,,,,,,,,,,mango,puppy,cond1,,,,,,,,,None,None,None,None,LEARNED,None,None,None,None,None,None,None,,,,,,1001,001,2013_Jan_22_0820,TNT_test,2021.2.2,120.01213579135519,
ocean,teeth,tissue,t,cond1,101,14,,,,,4,34,274,3,,,,,,,,,,,,,,,,,,,,,,,ocean,teeth,cond1,,,,,,,,,None,None,None,None,LEARNED,None,None,None,None,None,None,None,,,,,,1001,001,2013_Jan_22_0820,TNT_test,2021.2.2,120.01213579135519,
bike,zoo,facility,z,cond2,102,39,,,,,4,35,275,28,,,,,,,,,,,,,,,,,,,,,,,bike,zoo,cond2,,,,,,,,,None,None,None,None,LEARNED,None,None,None,None,None,None,None,,,,,,1001,001,2013_Jan_22_0820,TNT_test,2021.2.2,120.01213579135519,
rug,coconut,fruit,c,cond3,103,49,,,,,4,36,276,38,,,,,,,,,,,,,,,,,,,,,,,rug,coconut,cond3,,,,,,,,,1554.2078345811506,1554.707904762393,1554.6995183302843,None,no resp,None,1554.6995183302843,None,1559.7248813786073,1560.7250380412515,1560.7167258654254,None,,,,,,1001,001,2013_Jan_22_0820,TNT_test,2021.2.2,120.01213579135519,
cloud,rabbit,mammal,r,cond2,102,27,,,,,4,37,277,16,,,,,,,,,,,,,,,,,,,,,,,cloud,rabbit,cond2,,,,,,,,,None,None,None,None,LEARNED,None,None,None,None,None,None,None,,,,,,1001,001,2013_Jan_22_0820,TNT_test,2021.2.2,120.01213579135519,
basket,tractor,vehicle,t,cond2,102,32,,,,,4,38,278,21,,,,,,,,,,,,,,,,,,,,,,,basket,tractor,cond2,,,,,,,,,None,None,None,None,LEARNED,None,None,None,None,None,None,None,,,,,,1001,001,2013_Jan_22_0820,TNT_test,2021.2.2,120.01213579135519,
bucket,panda,mammal,p,cond3,103,56,,,,,4,39,279,45,,,,,,,,,,,,,,,,,,,,,,,bucket,panda,cond3,,,,,,,,,1562.8168963832059,1563.31697169598,1563.3085801323386,None,1,f,1563.3085801323386,None,1565.6504572647546,1566.650459981448,1566.6421788966663,None,2.298641260956174,,,,,1001,001,2013_Jan_22_0820,TNT_test,2021.2.2,120.01213579135519,
banana,flag,symbol,f,cond3,103,45,,,,,4,40,280,34,,,,,,,,,,,,,,,,,,,,,,,banana,flag,cond3,,,,,,,,,None,None,None,None,LEARNED,None,None,None,None,None,None,None,,,,,,1001,001,2013_Jan_22_0820,TNT_test,2021.2.2,120.01213579135519,
bone,desert,NA,NA,prac1,104,198,,,,,4,41,281,49,,,,,,,,,,,,,,,,,,,,,,,bone,desert,prac1,,,,,,,,,None,None,None,None,LEARNED,None,None,None,None,None,None,None,,,,,,1001,001,2013_Jan_22_0820,TNT_test,2021.2.2,120.01213579135519,
dentist,letter,document,l,cond2,102,37,,,,,4,42,282,26,,,,,,,,,,,,,,,,,,,,,,,dentist,letter,cond2,,,,,,,,,None,None,None,None,LEARNED,None,None,None,None,None,None,None,,,,,,1001,001,2013_Jan_22_0820,TNT_test,2021.2.2,120.01213579135519,
pickle,toilet,facility,t,cond3,103,51,,,,,4,43,283,40,,,,,,,,,,,,,,,,,,,,,,,pickle,toilet,cond3,,,,,,,,,None,None,None,None,LEARNED,None,None,None,None,None,None,None,,,,,,1001,001,2013_Jan_22_0820,TNT_test,2021.2.2,120.01213579135519,
kettle,snake,NA,NA,prac1,104,198,,,,,4,44,284,48,,,,,,,,,,,,,,,,,,,,,,,kettle,snake,prac1,,,,,,,,,None,None,None,None,LEARNED,None,None,None,None,None,None,None,,,,,,1001,001,2013_Jan_22_0820,TNT_test,2021.2.2,120.01213579135519,
crown,duck,bird,d,cond3,103,53,,,,,4,45,285,42,,,,,,,,,,,,,,,,,,,,,,,crown,duck,cond3,,,,,,,,,None,None,None,None,LEARNED,None,None,None,None,None,None,None,,,,,,1001,001,2013_Jan_22_0820,TNT_test,2021.2.2,120.01213579135519,
swan,groom,NA,NA,prac1,104,198,,,,,4,46,286,51,,,,,,,,,,,,,,,,,,,,,,,swan,groom,prac1,,,,,,,,,1568.909061711498,1569.4091068387925,1569.4008022093358,None,1,f,1569.4008022093358,None,1571.084267900971,1572.0843104624983,1572.0759662900618,None,1.6462349197108779,,,,,1001,001,2013_Jan_22_0820,TNT_test,2021.2.2,120.01213579135519,
needle,chimney,structure,c,cond3,103,52,,,,,4,47,287,41,,,,,,,,,,,,,,,,,,,,,,,needle,chimney,cond3,,,,,,,,,None,None,None,None,LEARNED,None,None,None,None,None,None,None,,,,,,1001,001,2013_Jan_22_0820,TNT_test,2021.2.2,120.01213579135519,
river,orchard,location,o,cond3,103,57,,,,,4,48,288,46,,,,,,,,,,,,,,,,,,,,,,,river,orchard,cond3,,,,,,,,,1574.1344234920316,1574.6345151049654,1574.6262026272834,None,no resp,None,1574.6262026272834,None,1579.651634498503,1580.6517021139798,1580.6433488858993,None,,,,,,1001,001,2013_Jan_22_0820,TNT_test,2021.2.2,120.01213579135519,
rope,throat,organ,t,cond1,101,20,,,,,4,49,289,9,,,,,,,,,,,,,,,,,,,,,,,rope,throat,cond1,,,,,,,,,None,None,None,None,LEARNED,None,None,None,None,None,None,None,,,,,,1001,001,2013_Jan_22_0820,TNT_test,2021.2.2,120.01213579135519,
eagle,mouse,NA,NA,prac1,104,198,,,,,4,50,290,52,,,,,,,,,,,,,,,,,,,,,,,eagle,mouse,prac1,,,,,,,,,None,None,None,None,LEARNED,None,None,None,None,None,None,None,,,,,,1001,001,2013_Jan_22_0820,TNT_test,2021.2.2,120.01213579135519,
college,fog,gas,f,cond3,103,48,,,,,4,51,291,37,,,,,,,,,,,,,,,,,,,,,,,college,fog,cond3,,,,,,,,,None,None,None,None,LEARNED,None,None,None,None,None,None,None,,,,,,1001,001,2013_Jan_22_0820,TNT_test,2021.2.2,120.01213579135519,
actor,map,representation,m,cond3,103,47,,,,,4,52,292,36,,,,,,,,,,,,,,,,,,,,,,,actor,map,cond3,,,,,,,,,None,None,None,None,LEARNED,None,None,None,None,None,None,None,,,,,,1001,001,2013_Jan_22_0820,TNT_test,2021.2.2,120.01213579135519,
dolphin,grass,NA,NA,prac2,104,198,,,,,4,53,293,56,,,,,,,,,,,,,,,,,,,,,,,dolphin,grass,prac2,,,,,,,,,None,None,None,None,LEARNED,None,None,None,None,None,None,None,,,,,,1001,001,2013_Jan_22_0820,TNT_test,2021.2.2,120.01213579135519,
hook,lamp,tool,l,cond3,103,55,,,,,4,54,294,44,,,,,,,,,,,,,,,,,,,,,,,hook,lamp,cond3,,,,,,,,,None,None,None,None,LEARNED,None,None,None,None,None,None,None,,,,,,1001,001,2013_Jan_22_0820,TNT_test,2021.2.2,120.01213579135519,
trolley,acorn,nut,a,cond3,103,43,,,,,4,55,295,32,,,,,,,,,,,,,,,,,,,,,,,trolley,acorn,cond3,,,,,,,,,1582.9102591695182,1583.4102155514993,1583.4102155514993,None,no resp,None,1583.4102155514993,None,1588.4357020584384,1589.4357162456145,1589.4273584897119,None,,,,,,1001,001,2013_Jan_22_0820,TNT_test,2021.2.2,120.01213579135519,
shark,cave,place,c,cond3,103,46,,,,,4,56,296,35,,,,,,,,,,,,,,,,,,,,,,,shark,cave,cond3,,,,,,,,,None,None,None,None,LEARNED,None,None,None,None,None,None,None,,,,,,1001,001,2013_Jan_22_0820,TNT_test,2021.2.2,120.01213579135519,
pillow,storm,climate,s,cond3,103,58,,,,,4,57,297,47,,,,,,,,,,,,,,,,,,,,,,,pillow,storm,cond3,,,,,,,,,None,None,None,None,LEARNED,None,None,None,None,None,None,None,,,,,,1001,001,2013_Jan_22_0820,TNT_test,2021.2.2,120.01213579135519,
soldier,bean,vegetable,b,cond1,101,11,,,,,4,58,298,0,,,,,,,,,,,,,,,,,,,,,,,soldier,bean,cond1,,,,,,,,,None,None,None,None,LEARNED,None,None,None,None,None,None,None,,,,,,1001,001,2013_Jan_22_0820,TNT_test,2021.2.2,120.01213579135519,
elephant,skin,tissue ,s,cond1,101,25,,,,,4,59,299,14,,,,,,,,,,,,,,,,,,,,,,,elephant,skin,cond1,,,,,,,,,None,None,None,None,LEARNED,None,None,None,None,None,None,None,,,,,,1001,001,2013_Jan_22_0820,TNT_test,2021.2.2,120.01213579135519,
pin,vase,container,v,cond1,101,16,,,,,5,0,300,5,,,,,,,,,,,,,,,,,,,,,,,pin,vase,cond1,,,,,,,,,None,None,None,None,LEARNED,None,None,None,None,None,None,None,,,,,,1001,001,2013_Jan_22_0820,TNT_test,2021.2.2,120.01213579135519,
trolley,acorn,nut,a,cond3,103,43,,,,,5,1,301,32,,,,,,,,,,,,,,,,,,,,,,,trolley,acorn,cond3,,,,,,,,,1591.6526574844447,1592.1527110636725,1592.1443309705146,None,1,f,1592.1443309705146,None,1594.2778114681278,1595.2778633871549,1595.2695874339051,None,2.086178641900915,,,,,1001,001,2013_Jan_22_0820,TNT_test,2021.2.2,120.01213579135519,
oyster,umbrella,tool,u,cond1,101,26,,,,,5,2,302,15,,,,,,,,,,,,,,,,,,,,,,,oyster,umbrella,cond1,,,,,,,,,None,None,None,None,LEARNED,None,None,None,None,None,None,None,,,,,,1001,001,2013_Jan_22_0820,TNT_test,2021.2.2,120.01213579135519,
gun,lime,fruit,l,cond2,102,41,,,,,5,3,303,30,,,,,,,,,,,,,,,,,,,,,,,gun,lime,cond2,,,,,,,,,None,None,None,None,LEARNED,None,None,None,None,None,None,None,,,,,,1001,001,2013_Jan_22_0820,TNT_test,2021.2.2,120.01213579135519,
otter,tomb,location,t,cond1,101,15,,,,,5,4,304,4,,,,,,,,,,,,,,,,,,,,,,,otter,tomb,cond1,,,,,,,,,None,None,None,None,LEARNED,None,None,None,None,None,None,None,,,,,,1001,001,2013_Jan_22_0820,TNT_test,2021.2.2,120.01213579135519,
rope,throat,organ,t,cond1,101,20,,,,,5,5,305,9,,,,,,,,,,,,,,,,,,,,,,,rope,throat,cond1,,,,,,,,,None,None,None,None,LEARNED,None,None,None,None,None,None,None,,,,,,1001,001,2013_Jan_22_0820,TNT_test,2021.2.2,120.01213579135519,
cloud,rabbit,mammal,r,cond2,102,27,,,,,5,6,306,16,,,,,,,,,,,,,,,,,,,,,,,cloud,rabbit,cond2,,,,,,,,,None,None,None,None,LEARNED,None,None,None,None,None,None,None,,,,,,1001,001,2013_Jan_22_0820,TNT_test,2021.2.2,120.01213579135519,
cracker,rake,tool,r,cond2,102,34,,,,,5,7,307,23,,,,,,,,,,,,,,,,,,,,,,,cracker,rake,cond2,,,,,,,,,None,None,None,None,LEARNED,None,None,None,None,None,None,None,,,,,,1001,001,2013_Jan_22_0820,TNT_test,2021.2.2,120.01213579135519,
string,glass,container ,g,cond2,102,29,,,,,5,8,308,18,,,,,,,,,,,,,,,,,,,,,,,string,glass,cond2,,,,,,,,,None,None,None,None,LEARNED,None,None,None,None,None,None,None,,,,,,1001,001,2013_Jan_22_0820,TNT_test,2021.2.2,120.01213579135519,
candy,rat,NA,NA,prac2,104,198,,,,,5,9,309,55,,,,,,,,,,,,,,,,,,,,,,,candy,rat,prac2,,,,,,,,,None,None,None,None,LEARNED,None,None,None,None,None,None,None,,,,,,1001,001,2013_Jan_22_0820,TNT_test,2021.2.2,120.01213579135519,
jug,beaver,anmial,b,cond3,103,54,,,,,5,10,310,43,,,,,,,,,,,,,,,,,,,,,,,jug,beaver,cond3,,,,,,,,,None,None,None,None,LEARNED,None,None,None,None,None,None,None,,,,,,1001,001,2013_Jan_22_0820,TNT_test,2021.2.2,120.01213579135519,
tent,lion,mammal,l,cond1,101,24,,,,,5,11,311,13,,,,,,,,,,,,,,,,,,,,,,,tent,lion,cond1,,,,,,,,,None,None,None,None,LEARNED,None,None,None,None,None,None,None,,,,,,1001,001,2013_Jan_22_0820,TNT_test,2021.2.2,120.01213579135519,
screw,beer,drink,b,cond2,102,33,,,,,5,12,312,22,,,,,,,,,,,,,,,,,,,,,,,screw,beer,cond2,,,,,,,,,None,None,None,None,LEARNED,None,None,None,None,None,None,None,,,,,,1001,001,2013_Jan_22_0820,TNT_test,2021.2.2,120.01213579135519,
skirt,computer,machine,c,cond3,103,50,,,,,5,13,313,39,,,,,,,,,,,,,,,,,,,,,,,skirt,computer,cond3,,,,,,,,,None,None,None,None,LEARNED,None,None,None,None,None,None,None,,,,,,1001,001,2013_Jan_22_0820,TNT_test,2021.2.2,120.01213579135519,
lemonade,teacher,profession,t,cond1,101,13,,,,,5,14,314,2,,,,,,,,,,,,,,,,,,,,,,,lemonade,teacher,cond1,,,,,,,,,None,None,None,None,LEARNED,None,None,None,None,None,None,None,,,,,,1001,001,2013_Jan_22_0820,TNT_test,2021.2.2,120.01213579135519,
bucket,panda,mammal,p,cond3,103,56,,,,,5,15,315,45,,,,,,,,,,,,,,,,,,,,,,,bucket,panda,cond3,,,,,,,,,None,None,None,None,LEARNED,None,None,None,None,None,None,None,,,,,,1001,001,2013_Jan_22_0820,TNT_test,2021.2.2,120.01213579135519,
