counterbalance.thisRepN,counterbalance.thisTrialN,counterbalance.thisN,counterbalance.thisIndex,buffer_begin.thisRepN,buffer_begin.thisTrialN,buffer_begin.thisN,buffer_begin.thisIndex,cond1cue.thisRepN,cond1cue.thisTrialN,cond1cue.thisN,cond1cue.thisIndex,cond2cue.thisRepN,cond2cue.thisTrialN,cond2cue.thisN,cond2cue.thisIndex,cond3cue.thisRepN,cond3cue.thisTrialN,cond3cue.thisN,cond3cue.thisIndex,con1target.thisRepN,con1target.thisTrialN,con1target.thisN,con1target.thisIndex,cond2target.thisRepN,cond2target.thisTrialN,cond2target.thisN,cond2target.thisIndex,cond3target.thisRepN,cond3target.thisTrialN,cond3target.thisN,cond3target.thisIndex,buffer_end.thisRepN,buffer_end.thisTrialN,buffer_end.thisN,buffer_end.thisIndex,WelTex.started,WelTex.stopped,start_resp.keys,start_resp.rt,start_resp.started,start_resp.stopped,start_recording.started,start_recording.stopped,buf_bgin_txt.started,buf_bgin_txt.stopped,buf_bgin_fix.started,buf_bgin_fix.stopped,trigger_buffer.started,trigger_buffer.stopped,atten_detect.keys,atten_detect.corr,atten_detect.started,atten_detect.stopped,stim,category,type,trigger_value,fixation_color,my_stimulus.started,my_stimulus.stopped,fixation.started,fixation.stopped,trigger_stimuli.started,trigger_stimuli.stopped,atten_detect.rt,buf_end_txt.started,buf_end_txt.stopped,buf_end_fix.started,buf_end_fix.stopped,trigger_buffer_end.started,trigger_buffer_end.stopped,text.started,text.stopped,key_resp.keys,key_resp.rt,key_resp.started,key_resp.stopped,endText.started,endText.stopped,stop_recording.started,stop_recording.stopped,participant,session,date,expName,psychopyVersion,frameRate,
,,,,,,,,,,,,,,,,,,,,,,,,,,,,,,,,,,,,9.996359329170446,None,space,16.22609136360188,9.996359329170446,None,,,,,,,,,,,,,,,,,,,,,,,,,,,,,,,,,,,,,,,,,1001,001,2013_Jan_22_1028,FPVS,2021.2.2,120.06563496617713,
0,0,0,0,0,0,0,0,,,,,,,,,,,,,,,,,,,,,,,,,,,,,,,,,,,9.996359329170446,10.096371373176225,26.23961445896566,None,26.23961445896566,None,26.23961445896566,26.3395498318514,,,,,,,,,,,,,,,,,,,,,,,,,,,,,,,,,1001,001,2013_Jan_22_1028,FPVS,2021.2.2,120.06563496617713,
0,0,0,0,1,0,1,0,,,,,,,,,,,,,,,,,,,,,,,,,,,,,,,,,,,,,26.489637475395284,None,26.489637475395284,None,26.489637475395284,26.589660386174728,,,,,,,,,,,,,,,,,,,,,,,,,,,,,,,,,1001,001,2013_Jan_22_1028,FPVS,2021.2.2,120.06563496617713,
0,0,0,0,2,0,2,0,,,,,,,,,,,,,,,,,,,,,,,,,,,,,,,,,,,,,26.739654454728225,None,26.739654454728225,None,26.739654454728225,26.83966861171757,,,,,,,,,,,,,,,,,,,,,,,,,,,,,,,,,1001,001,2013_Jan_22_1028,FPVS,2021.2.2,120.06563496617713,
0,0,0,0,3,0,3,0,,,,,,,,,,,,,,,,,,,,,,,,,,,,,,,,,,,,,26.989702826960638,None,26.989702826960638,None,26.989702826960638,27.089611032914036,,,,,,,,,,,,,,,,,,,,,,,,,,,,,,,,,1001,001,2013_Jan_22_1028,FPVS,2021.2.2,120.06563496617713,
0,0,0,0,4,0,4,0,,,,,,,,,,,,,,,,,,,,,,,,,,,,,,,,,,,,,27.23971044879545,None,27.23971044879545,None,27.23971044879545,27.339719474253798,,,,,,,,,,,,,,,,,,,,,,,,,,,,,,,,,1001,001,2013_Jan_22_1028,FPVS,2021.2.2,120.06563496617713,
0,0,0,0,5,0,5,0,,,,,,,,,,,,,,,,,,,,,,,,,,,,,,,,,,,,,27.498064356048417,None,27.498064356048417,None,27.498064356048417,27.59811081150292,,,,,,,,,,,,,,,,,,,,,,,,,,,,,,,,,1001,001,2013_Jan_22_1028,FPVS,2021.2.2,120.06563496617713,
0,0,0,0,6,0,6,0,,,,,,,,,,,,,,,,,,,,,,,,,,,,,,,,,,,,,27.74808435392879,None,27.74808435392879,None,27.74808435392879,27.848104548016636,,,,,,,,,,,,,,,,,,,,,,,,,,,,,,,,,1001,001,2013_Jan_22_1028,FPVS,2021.2.2,120.06563496617713,
0,0,0,0,7,0,7,0,,,,,,,,,,,,,,,,,,,,,,,,,,,,,,,,,,,,,27.989691960186974,None,27.989691960186974,None,27.989691960186974,28.089778864186883,,,,,,,,,,,,,,,,,,,,,,,,,,,,,,,,,1001,001,2013_Jan_22_1028,FPVS,2021.2.2,120.06563496617713,
0,0,0,0,,,,,0,0,0,0,,,,,,,,,,,,,,,,,,,,,,,,,,,,,,,,,,,,,,,None,0,28.24813491460918,None,boot,none,none,7,blue,28.24813491460918,None,28.24813491460918,None,28.24813491460918,28.348159032808326,,,,,,,,,,,,,,,,,,1001,001,2013_Jan_22_1028,FPVS,2021.2.2,120.06563496617713,
0,0,0,0,,,,,1,0,1,0,,,,,,,,,,,,,,,,,,,,,,,,,,,,,,,,,,,,,,,None,0,28.50648187920342,None,laundry,none,none,7,blue,28.50648187920342,None,28.50648187920342,None,28.50648187920342,28.606485471274937,,,,,,,,,,,,,,,,,,1001,001,2013_Jan_22_1028,FPVS,2021.2.2,120.06563496617713,
0,0,0,0,,,,,2,0,2,0,,,,,,,,,,,,,,,,,,,,,,,,,,,,,,,,,,,,,,,None,0,28.748105483766267,None,script,none,none,7,red,28.748105483766267,None,28.748105483766267,None,28.748105483766267,28.84810183132322,,,,,,,,,,,,,,,,,,1001,001,2013_Jan_22_1028,FPVS,2021.2.2,120.06563496617713,
0,0,0,0,,,,,3,0,3,0,,,,,,,,,,,,,,,,,,,,,,,,,,,,,,,,,,,,,,,None,0,29.0065197619806,None,lemonade,cond1,cue,1,red,29.0065197619806,None,29.0065197619806,None,29.0065197619806,29.106507053893438,,,,,,,,,,,,,,,,,,1001,001,2013_Jan_22_1028,FPVS,2021.2.2,120.06563496617713,
0,0,0,0,,,,,4,0,4,0,,,,,,,,,,,,,,,,,,,,,,,,,,,,,,,,,,,,,,,space,0,29.248126462674918,None,apron,none,none,7,blue,29.248126462674918,None,29.248126462674918,None,29.248126462674918,29.34819585909463,0.190168226703463,,,,,,,,,,,,,,,,,1001,001,2013_Jan_22_1028,FPVS,2021.2.2,120.06563496617713,
0,0,0,0,,,,,5,0,5,0,,,,,,,,,,,,,,,,,,,,,,,,,,,,,,,,,,,,,,,None,0,29.498225244660716,None,truck,none,none,7,blue,29.498225244660716,None,29.498225244660716,None,29.498225244660716,29.59817691770695,,,,,,,,,,,,,,,,,,1001,001,2013_Jan_22_1028,FPVS,2021.2.2,120.06563496617713,
0,0,0,0,,,,,6,0,6,0,,,,,,,,,,,,,,,,,,,,,,,,,,,,,,,,,,,,,,,None,0,29.75658730199393,None,nail,none,none,7,blue,29.75658730199393,None,29.75658730199393,None,29.75658730199393,29.856542295443433,,,,,,,,,,,,,,,,,,1001,001,2013_Jan_22_1028,FPVS,2021.2.2,120.06563496617713,
0,0,0,0,,,,,7,0,7,0,,,,,,,,,,,,,,,,,,,,,,,,,,,,,,,,,,,,,,,None,0,30.00660307390899,None,otter,cond1,cue,1,blue,30.00660307390899,None,30.00660307390899,None,30.00660307390899,30.106607269690357,,,,,,,,,,,,,,,,,,1001,001,2013_Jan_22_1028,FPVS,2021.2.2,120.06563496617713,
0,0,0,0,,,,,8,0,8,0,,,,,,,,,,,,,,,,,,,,,,,,,,,,,,,,,,,,,,,None,0,30.256550022926604,None,soap,none,none,7,blue,30.256550022926604,None,30.256550022926604,None,30.256550022926604,30.356635417650978,,,,,,,,,,,,,,,,,,1001,001,2013_Jan_22_1028,FPVS,2021.2.2,120.06563496617713,
0,0,0,0,,,,,9,0,9,0,,,,,,,,,,,,,,,,,,,,,,,,,,,,,,,,,,,,,,,None,0,30.506650012330283,None,button,none,none,7,blue,30.506650012330283,None,30.506650012330283,None,30.506650012330283,30.606664169321448,,,,,,,,,,,,,,,,,,1001,001,2013_Jan_22_1028,FPVS,2021.2.2,120.06563496617713,
0,0,0,0,,,,,10,0,10,0,,,,,,,,,,,,,,,,,,,,,,,,,,,,,,,,,,,,,,,None,0,30.756669406502624,None,cake,none,none,7,blue,30.756669406502624,None,30.756669406502624,None,30.756669406502624,30.85668175236424,,,,,,,,,,,,,,,,,,1001,001,2013_Jan_22_1028,FPVS,2021.2.2,120.06563496617713,
0,0,0,0,,,,,11,0,11,0,,,,,,,,,,,,,,,,,,,,,,,,,,,,,,,,,,,,,,,None,0,30.998326215094494,None,turtle,cond1,cue,1,blue,30.998326215094494,None,30.998326215094494,None,30.998326215094494,31.098368444581865,,,,,,,,,,,,,,,,,,1001,001,2013_Jan_22_1028,FPVS,2021.2.2,120.06563496617713,
0,0,0,0,,,,,12,0,12,0,,,,,,,,,,,,,,,,,,,,,,,,,,,,,,,,,,,,,,,None,0,31.256708194845487,None,chicken,none,none,7,blue,31.256708194845487,None,31.256708194845487,None,31.256708194845487,31.35671752215785,,,,,,,,,,,,,,,,,,1001,001,2013_Jan_22_1028,FPVS,2021.2.2,120.06563496617713,
0,0,0,0,,,,,13,0,13,0,,,,,,,,,,,,,,,,,,,,,,,,,,,,,,,,,,,,,,,None,0,31.506728494579875,None,pizza,none,none,7,blue,31.506728494579875,None,31.506728494579875,None,31.506728494579875,31.606662056337882,,,,,,,,,,,,,,,,,,1001,001,2013_Jan_22_1028,FPVS,2021.2.2,120.06563496617713,
0,0,0,0,,,,,14,0,14,0,,,,,,,,,,,,,,,,,,,,,,,,,,,,,,,,,,,,,,,None,0,31.756747285042366,None,photo,none,none,7,red,31.756747285042366,None,31.756747285042366,None,31.756747285042366,31.85667299857414,,,,,,,,,,,,,,,,,,1001,001,2013_Jan_22_1028,FPVS,2021.2.2,120.06563496617713,
0,0,0,0,,,,,15,0,15,0,,,,,,,,,,,,,,,,,,,,,,,,,,,,,,,,,,,,,,,space,0,32.00676879219827,None,belt,cond1,cue,1,red,32.00676879219827,None,32.00676879219827,None,32.00676879219827,32.10678536402702,0.16748142310098046,,,,,,,,,,,,,,,,,1001,001,2013_Jan_22_1028,FPVS,2021.2.2,120.06563496617713,
0,0,0,0,,,,,16,0,16,0,,,,,,,,,,,,,,,,,,,,,,,,,,,,,,,,,,,,,,,None,0,32.256805392093156,None,canoe,none,none,7,blue,32.256805392093156,None,32.256805392093156,None,32.256805392093156,32.356729596351215,,,,,,,,,,,,,,,,,,1001,001,2013_Jan_22_1028,FPVS,2021.2.2,120.06563496617713,
0,0,0,0,,,,,17,0,17,0,,,,,,,,,,,,,,,,,,,,,,,,,,,,,,,,,,,,,,,None,0,32.50680908981485,None,juice,none,none,7,blue,32.50680908981485,None,32.50680908981485,None,32.50680908981485,32.606816002289634,,,,,,,,,,,,,,,,,,1001,001,2013_Jan_22_1028,FPVS,2021.2.2,120.06563496617713,
0,0,0,0,,,,,18,0,18,0,,,,,,,,,,,,,,,,,,,,,,,,,,,,,,,,,,,,,,,None,0,32.74848763195223,None,bay,none,none,7,red,32.74848763195223,None,32.74848763195223,None,32.74848763195223,32.848452888463726,,,,,,,,,,,,,,,,,,1001,001,2013_Jan_22_1028,FPVS,2021.2.2,120.06563496617713,
0,0,0,0,,,,,19,0,19,0,,,,,,,,,,,,,,,,,,,,,,,,,,,,,,,,,,,,,,,space,0,33.00686236718684,None,turtle,cond1,cue,1,red,33.00686236718684,None,33.00686236718684,None,33.00686236718684,33.10686022401933,0.2073905527304305,,,,,,,,,,,,,,,,,1001,001,2013_Jan_22_1028,FPVS,2021.2.2,120.06563496617713,
0,0,0,0,,,,,20,0,20,0,,,,,,,,,,,,,,,,,,,,,,,,,,,,,,,,,,,,,,,None,0,33.25688176135918,None,chair,none,none,7,blue,33.25688176135918,None,33.25688176135918,None,33.25688176135918,33.356875694076734,,,,,,,,,,,,,,,,,,1001,001,2013_Jan_22_1028,FPVS,2021.2.2,120.06563496617713,
0,0,0,0,,,,,21,0,21,0,,,,,,,,,,,,,,,,,,,,,,,,,,,,,,,,,,,,,,,None,0,33.4985430977722,None,rice,none,none,7,blue,33.4985430977722,None,33.4985430977722,None,33.4985430977722,33.598511372832945,,,,,,,,,,,,,,,,,,1001,001,2013_Jan_22_1028,FPVS,2021.2.2,120.06563496617713,
0,0,0,0,,,,,22,0,22,0,,,,,,,,,,,,,,,,,,,,,,,,,,,,,,,,,,,,,,,None,0,33.7485923755703,None,taxi,none,none,7,blue,33.7485923755703,None,33.7485923755703,None,33.7485923755703,33.84859596764181,,,,,,,,,,,,,,,,,,1001,001,2013_Jan_22_1028,FPVS,2021.2.2,120.06563496617713,
0,0,0,0,,,,,23,0,23,0,,,,,,,,,,,,,,,,,,,,,,,,,,,,,,,,,,,,,,,None,0,34.00687987476704,None,pin,cond1,cue,1,blue,34.00687987476704,None,34.00687987476704,None,34.00687987476704,34.10695772312101,,,,,,,,,,,,,,,,,,1001,001,2013_Jan_22_1028,FPVS,2021.2.2,120.06563496617713,
0,0,0,0,,,,,24,0,24,0,,,,,,,,,,,,,,,,,,,,,,,,,,,,,,,,,,,,,,,None,0,34.248609128511816,None,pancake,none,none,7,blue,34.248609128511816,None,34.248609128511816,None,34.248609128511816,34.348568046072614,,,,,,,,,,,,,,,,,,1001,001,2013_Jan_22_1028,FPVS,2021.2.2,120.06563496617713,
0,0,0,0,,,,,25,0,25,0,,,,,,,,,,,,,,,,,,,,,,,,,,,,,,,,,,,,,,,None,0,34.50697480810413,None,oven,none,none,7,blue,34.50697480810413,None,34.50697480810413,None,34.50697480810413,34.606994096626295,,,,,,,,,,,,,,,,,,1001,001,2013_Jan_22_1028,FPVS,2021.2.2,120.06563496617713,
0,0,0,0,,,,,26,0,26,0,,,,,,,,,,,,,,,,,,,,,,,,,,,,,,,,,,,,,,,None,0,34.748611694278225,None,printer,none,none,7,blue,34.748611694278225,None,34.748611694278225,None,34.748611694278225,34.84865422561961,,,,,,,,,,,,,,,,,,1001,001,2013_Jan_22_1028,FPVS,2021.2.2,120.06563496617713,
0,0,0,0,,,,,27,0,27,0,,,,,,,,,,,,,,,,,,,,,,,,,,,,,,,,,,,,,,,None,0,35.007012389027295,None,yogurt,cond1,cue,1,blue,35.007012389027295,None,35.007012389027295,None,35.007012389027295,35.10701869779223,,,,,,,,,,,,,,,,,,1001,001,2013_Jan_22_1028,FPVS,2021.2.2,120.06563496617713,
0,0,0,0,,,,,28,0,28,0,,,,,,,,,,,,,,,,,,,,,,,,,,,,,,,,,,,,,,,None,0,35.257054120453176,None,doll,none,none,7,blue,35.257054120453176,None,35.257054120453176,None,35.257054120453176,35.35706103292978,,,,,,,,,,,,,,,,,,1001,001,2013_Jan_22_1028,FPVS,2021.2.2,120.06563496617713,
0,0,0,0,,,,,29,0,29,0,,,,,,,,,,,,,,,,,,,,,,,,,,,,,,,,,,,,,,,None,0,35.507070496078086,None,vault,none,none,7,blue,35.507070496078086,None,35.507070496078086,None,35.507070496078086,35.60701190605869,,,,,,,,,,,,,,,,,,1001,001,2013_Jan_22_1028,FPVS,2021.2.2,120.06563496617713,
0,0,0,0,,,,,30,0,30,0,,,,,,,,,,,,,,,,,,,,,,,,,,,,,,,,,,,,,,,None,0,35.757082645734044,None,shampoo,none,none,7,blue,35.757082645734044,None,35.757082645734044,None,35.757082645734044,35.85714630691291,,,,,,,,,,,,,,,,,,1001,001,2013_Jan_22_1028,FPVS,2021.2.2,120.06563496617713,
0,0,0,0,,,,,31,0,31,0,,,,,,,,,,,,,,,,,,,,,,,,,,,,,,,,,,,,,,,None,0,36.0071074732914,None,elephant,cond1,cue,1,blue,36.0071074732914,None,36.0071074732914,None,36.0071074732914,36.10711317834648,,,,,,,,,,,,,,,,,,1001,001,2013_Jan_22_1028,FPVS,2021.2.2,120.06563496617713,
0,0,0,0,,,,,32,0,32,0,,,,,,,,,,,,,,,,,,,,,,,,,,,,,,,,,,,,,,,None,0,36.25712958415534,None,soda,none,none,7,red,36.25712958415534,None,36.25712958415534,None,36.25712958415534,36.35714404300052,,,,,,,,,,,,,,,,,,1001,001,2013_Jan_22_1028,FPVS,2021.2.2,120.06563496617713,
0,0,0,0,,,,,33,0,33,0,,,,,,,,,,,,,,,,,,,,,,,,,,,,,,,,,,,,,,,space,0,36.50710309639726,None,tomato,none,none,7,red,36.50710309639726,None,36.50710309639726,None,36.50710309639726,36.60720056531318,0.14707694369462843,,,,,,,,,,,,,,,,,1001,001,2013_Jan_22_1028,FPVS,2021.2.2,120.06563496617713,
0,0,0,0,,,,,34,0,34,0,,,,,,,,,,,,,,,,,,,,,,,,,,,,,,,,,,,,,,,None,0,36.757109812666386,None,plug,none,none,7,blue,36.757109812666386,None,36.757109812666386,None,36.757109812666386,36.85716562561902,,,,,,,,,,,,,,,,,,1001,001,2013_Jan_22_1028,FPVS,2021.2.2,120.06563496617713,
0,0,0,0,,,,,35,0,35,0,,,,,,,,,,,,,,,,,,,,,,,,,,,,,,,,,,,,,,,None,0,37.007124980869776,None,rope,cond1,cue,1,blue,37.007124980869776,None,37.007124980869776,None,37.007124980869776,37.107277387362046,,,,,,,,,,,,,,,,,,1001,001,2013_Jan_22_1028,FPVS,2021.2.2,120.06563496617713,
0,0,0,0,,,,,36,0,36,0,,,,,,,,,,,,,,,,,,,,,,,,,,,,,,,,,,,,,,,None,0,37.25715161955668,None,couch,none,none,7,blue,37.25715161955668,None,37.25715161955668,None,37.25715161955668,37.35717845444924,,,,,,,,,,,,,,,,,,1001,001,2013_Jan_22_1028,FPVS,2021.2.2,120.06563496617713,
0,0,0,0,,,,,37,0,37,0,,,,,,,,,,,,,,,,,,,,,,,,,,,,,,,,,,,,,,,None,0,37.50723742178525,None,runner,none,none,7,blue,37.50723742178525,None,37.50723742178525,None,37.50723742178525,37.60717822805782,,,,,,,,,,,,,,,,,,1001,001,2013_Jan_22_1028,FPVS,2021.2.2,120.06563496617713,
0,0,0,0,,,,,38,0,38,0,,,,,,,,,,,,,,,,,,,,,,,,,,,,,,,,,,,,,,,None,0,37.757247760313476,None,lake,none,none,7,blue,37.757247760313476,None,37.757247760313476,None,37.757247760313476,37.85720305561517,,,,,,,,,,,,,,,,,,1001,001,2013_Jan_22_1028,FPVS,2021.2.2,120.06563496617713,
0,0,0,0,,,,,39,0,39,0,,,,,,,,,,,,,,,,,,,,,,,,,,,,,,,,,,,,,,,None,0,38.00727832311168,None,tent,cond1,cue,1,blue,38.00727832311168,None,38.00727832311168,None,38.00727832311168,38.10725837050995,,,,,,,,,,,,,,,,,,1001,001,2013_Jan_22_1028,FPVS,2021.2.2,120.06563496617713,
0,0,0,0,,,,,40,0,40,0,,,,,,,,,,,,,,,,,,,,,,,,,,,,,,,,,,,,,,,None,0,38.257223762855574,None,slipper,none,none,7,red,38.257223762855574,None,38.257223762855574,None,38.257223762855574,38.35723973097447,,,,,,,,,,,,,,,,,,1001,001,2013_Jan_22_1028,FPVS,2021.2.2,120.06563496617713,
0,0,0,0,,,,,41,0,41,0,,,,,,,,,,,,,,,,,,,,,,,,,,,,,,,,,,,,,,,space,0,38.507258551622726,None,syrup,none,none,7,red,38.507258551622726,None,38.507258551622726,None,38.507258551622726,38.60726395482379,0.14686775831432897,,,,,,,,,,,,,,,,,1001,001,2013_Jan_22_1028,FPVS,2021.2.2,120.06563496617713,
0,0,0,0,,,,,42,0,42,0,,,,,,,,,,,,,,,,,,,,,,,,,,,,,,,,,,,,,,,None,0,38.75733771304476,None,bouquet,none,none,7,blue,38.75733771304476,None,38.75733771304476,None,38.75733771304476,38.85737541471099,,,,,,,,,,,,,,,,,,1001,001,2013_Jan_22_1028,FPVS,2021.2.2,120.06563496617713,
0,0,0,0,,,,,43,0,43,0,,,,,,,,,,,,,,,,,,,,,,,,,,,,,,,,,,,,,,,None,0,39.00737914261845,None,egg,cond1,cue,1,blue,39.00737914261845,None,39.00737914261845,None,39.00737914261845,39.10734771953139,,,,,,,,,,,,,,,,,,1001,001,2013_Jan_22_1028,FPVS,2021.2.2,120.06563496617713,
0,0,0,0,,,,,44,0,44,0,,,,,,,,,,,,,,,,,,,,,,,,,,,,,,,,,,,,,,,None,0,39.248981617343816,None,hat,none,none,7,blue,39.248981617343816,None,39.248981617343816,None,39.248981617343816,39.3490492026358,,,,,,,,,,,,,,,,,,1001,001,2013_Jan_22_1028,FPVS,2021.2.2,120.06563496617713,
0,0,0,0,,,,,45,0,45,0,,,,,,,,,,,,,,,,,,,,,,,,,,,,,,,,,,,,,,,None,0,39.50733643016247,None,nut,none,none,7,blue,39.50733643016247,None,39.50733643016247,None,39.50733643016247,39.607442652868485,,,,,,,,,,,,,,,,,,1001,001,2013_Jan_22_1028,FPVS,2021.2.2,120.06563496617713,
0,0,0,0,,,,,46,0,46,0,,,,,,,,,,,,,,,,,,,,,,,,,,,,,,,,,,,,,,,None,0,39.757421628681186,None,paint,none,none,7,blue,39.757421628681186,None,39.757421628681186,None,39.757421628681186,39.857422504061105,,,,,,,,,,,,,,,,,,1001,001,2013_Jan_22_1028,FPVS,2021.2.2,120.06563496617713,
0,0,0,0,,,,,47,0,47,0,,,,,,,,,,,,,,,,,,,,,,,,,,,,,,,,,,,,,,,None,0,40.00741506333907,None,pin,cond1,cue,1,blue,40.00741506333907,None,40.00741506333907,None,40.00741506333907,40.10744310565133,,,,,,,,,,,,,,,,,,1001,001,2013_Jan_22_1028,FPVS,2021.2.2,120.06563496617713,
0,0,0,0,,,,,48,0,48,0,,,,,,,,,,,,,,,,,,,,,,,,,,,,,,,,,,,,,,,None,0,40.25746283186345,None,bat,none,none,7,red,40.25746283186345,None,40.25746283186345,None,40.25746283186345,40.35750445764097,,,,,,,,,,,,,,,,,,1001,001,2013_Jan_22_1028,FPVS,2021.2.2,120.06563496617713,
0,0,0,0,,,,,49,0,49,0,,,,,,,,,,,,,,,,,,,,,,,,,,,,,,,,,,,,,,,None,0,40.50747437780956,None,oil,none,none,7,red,40.50747437780956,None,40.50747437780956,None,40.50747437780956,40.60748762923504,,,,,,,,,,,,,,,,,,1001,001,2013_Jan_22_1028,FPVS,2021.2.2,120.06563496617713,
0,0,0,0,,,,,50,0,50,0,,,,,,,,,,,,,,,,,,,,,,,,,,,,,,,,,,,,,,,None,0,40.7574406455351,None,vulture,none,none,7,blue,40.7574406455351,None,40.7574406455351,None,40.7574406455351,40.857454802524444,,,,,,,,,,,,,,,,,,1001,001,2013_Jan_22_1028,FPVS,2021.2.2,120.06563496617713,
0,0,0,0,,,,,51,0,51,0,,,,,,,,,,,,,,,,,,,,,,,,,,,,,,,,,,,,,,,None,0,41.00753248486035,None,yogurt,cond1,cue,1,blue,41.00753248486035,None,41.00753248486035,None,41.00753248486035,41.107514343386356,,,,,,,,,,,,,,,,,,1001,001,2013_Jan_22_1028,FPVS,2021.2.2,120.06563496617713,
0,0,0,0,,,,,52,0,52,0,,,,,,,,,,,,,,,,,,,,,,,,,,,,,,,,,,,,,,,None,0,41.25748094315168,None,waitress,none,none,7,blue,41.25748094315168,None,41.25748094315168,None,41.25748094315168,41.35755335811882,,,,,,,,,,,,,,,,,,1001,001,2013_Jan_22_1028,FPVS,2021.2.2,120.06563496617713,
0,0,0,0,,,,,53,0,53,0,,,,,,,,,,,,,,,,,,,,,,,,,,,,,,,,,,,,,,,None,0,41.50755799159015,None,straw,none,none,7,blue,41.50755799159015,None,41.50755799159015,None,41.50755799159015,41.60757607269443,,,,,,,,,,,,,,,,,,1001,001,2013_Jan_22_1028,FPVS,2021.2.2,120.06563496617713,
0,0,0,0,,,,,54,0,54,0,,,,,,,,,,,,,,,,,,,,,,,,,,,,,,,,,,,,,,,None,0,41.757584932132886,None,flute,none,none,7,blue,41.757584932132886,None,41.757584932132886,None,41.757584932132886,41.8576428580709,,,,,,,,,,,,,,,,,,1001,001,2013_Jan_22_1028,FPVS,2021.2.2,120.06563496617713,
0,0,0,0,,,,,55,0,55,0,,,,,,,,,,,,,,,,,,,,,,,,,,,,,,,,,,,,,,,None,0,41.999250494513035,None,soldier,cond1,cue,1,blue,41.999250494513035,None,41.999250494513035,None,41.999250494513035,42.0992076009461,,,,,,,,,,,,,,,,,,1001,001,2013_Jan_22_1028,FPVS,2021.2.2,120.06563496617713,
0,0,0,0,,,,,56,0,56,0,,,,,,,,,,,,,,,,,,,,,,,,,,,,,,,,,,,,,,,None,0,42.25764515216724,None,wagon,none,none,7,red,42.25764515216724,None,42.25764515216724,None,42.25764515216724,42.35763455706365,,,,,,,,,,,,,,,,,,1001,001,2013_Jan_22_1028,FPVS,2021.2.2,120.06563496617713,
0,0,0,0,,,,,57,0,57,0,,,,,,,,,,,,,,,,,,,,,,,,,,,,,,,,,,,,,,,None,0,42.50764522762984,None,grape,none,none,7,red,42.50764522762984,None,42.50764522762984,None,42.50764522762984,42.60763523623609,,,,,,,,,,,,,,,,,,1001,001,2013_Jan_22_1028,FPVS,2021.2.2,120.06563496617713,
0,0,0,0,,,,,58,0,58,0,,,,,,,,,,,,,,,,,,,,,,,,,,,,,,,,,,,,,,,space,0,42.749372670246885,None,hotel,none,none,7,red,42.749372670246885,None,42.749372670246885,None,42.749372670246885,42.84934547312878,0.01658571423831745,,,,,,,,,,,,,,,,,1001,001,2013_Jan_22_1028,FPVS,2021.2.2,120.06563496617713,
0,0,0,0,,,,,59,0,59,0,,,,,,,,,,,,,,,,,,,,,,,,,,,,,,,,,,,,,,,None,0,43.007626059850736,None,ocean,cond1,cue,1,red,43.007626059850736,None,43.007626059850736,None,43.007626059850736,43.10771205828496,,,,,,,,,,,,,,,,,,1001,001,2013_Jan_22_1028,FPVS,2021.2.2,120.06563496617713,
0,0,0,0,,,,,60,0,60,0,,,,,,,,,,,,,,,,,,,,,,,,,,,,,,,,,,,,,,,None,0,43.25771759732015,None,pasta,none,none,7,blue,43.25771759732015,None,43.25771759732015,None,43.25771759732015,43.357774013984454,,,,,,,,,,,,,,,,,,1001,001,2013_Jan_22_1028,FPVS,2021.2.2,120.06563496617713,
0,0,0,0,,,,,61,0,61,0,,,,,,,,,,,,,,,,,,,,,,,,,,,,,,,,,,,,,,,None,0,43.507739406330074,None,feather,none,none,7,blue,43.507739406330074,None,43.507739406330074,None,43.507739406330074,43.60774933735411,,,,,,,,,,,,,,,,,,1001,001,2013_Jan_22_1028,FPVS,2021.2.2,120.06563496617713,
0,0,0,0,,,,,62,0,62,0,,,,,,,,,,,,,,,,,,,,,,,,,,,,,,,,,,,,,,,None,0,43.757758800500596,None,beard,none,none,7,blue,43.757758800500596,None,43.757758800500596,None,43.757758800500596,43.85775756289695,,,,,,,,,,,,,,,,,,1001,001,2013_Jan_22_1028,FPVS,2021.2.2,120.06563496617713,
0,0,0,0,,,,,63,0,63,0,,,,,,,,,,,,,,,,,,,,,,,,,,,,,,,,,,,,,,,None,0,44.00779358926775,None,menu,cond1,cue,1,blue,44.00779358926775,None,44.00779358926775,None,44.00779358926775,44.10779054053455,,,,,,,,,,,,,,,,,,1001,001,2013_Jan_22_1028,FPVS,2021.2.2,120.06563496617713,
0,0,0,0,,,,,64,0,64,0,,,,,,,,,,,,,,,,,,,,,,,,,,,,,,,,,,,,,,,None,0,44.25773872715763,None,radio,none,none,7,blue,44.25773872715763,None,44.25773872715763,None,44.25773872715763,44.35782110333457,,,,,,,,,,,,,,,,,,1001,001,2013_Jan_22_1028,FPVS,2021.2.2,120.06563496617713,
0,0,0,0,,,,,65,0,65,0,,,,,,,,,,,,,,,,,,,,,,,,,,,,,,,,,,,,,,,None,0,44.50776989366568,None,dirt,none,none,7,red,44.50776989366568,None,44.50776989366568,None,44.50776989366568,44.607816349120185,,,,,,,,,,,,,,,,,,1001,001,2013_Jan_22_1028,FPVS,2021.2.2,120.06563496617713,
0,0,0,0,,,,,66,0,66,0,,,,,,,,,,,,,,,,,,,,,,,,,,,,,,,,,,,,,,,None,0,44.74951574942497,None,diamond,none,none,7,red,44.74951574942497,None,44.74951574942497,None,44.74951574942497,44.849486741179135,,,,,,,,,,,,,,,,,,1001,001,2013_Jan_22_1028,FPVS,2021.2.2,120.06563496617713,
0,0,0,0,,,,,67,0,67,0,,,,,,,,,,,,,,,,,,,,,,,,,,,,,,,,,,,,,,,space,0,45.00785396022911,None,egg,cond1,cue,1,blue,45.00785396022911,None,45.00785396022911,None,45.00785396022911,45.10779989803268,0.014085149015954812,,,,,,,,,,,,,,,,,1001,001,2013_Jan_22_1028,FPVS,2021.2.2,120.06563496617713,
0,0,0,0,,,,,68,0,68,0,,,,,,,,,,,,,,,,,,,,,,,,,,,,,,,,,,,,,,,None,0,45.25781751126124,None,clay,none,none,7,blue,45.25781751126124,None,45.25781751126124,None,45.25781751126124,45.35789656703491,,,,,,,,,,,,,,,,,,1001,001,2013_Jan_22_1028,FPVS,2021.2.2,120.06563496617713,
0,0,0,0,,,,,69,0,69,0,,,,,,,,,,,,,,,,,,,,,,,,,,,,,,,,,,,,,,,None,0,45.50791599139302,None,burger,none,none,7,blue,45.50791599139302,None,45.50791599139302,None,45.50791599139302,45.60791233894997,,,,,,,,,,,,,,,,,,1001,001,2013_Jan_22_1028,FPVS,2021.2.2,120.06563496617713,
0,0,0,0,,,,,70,0,70,0,,,,,,,,,,,,,,,,,,,,,,,,,,,,,,,,,,,,,,,None,0,45.75788859806926,None,radish,none,none,7,blue,45.75788859806926,None,45.75788859806926,None,45.75788859806926,45.85793324239421,,,,,,,,,,,,,,,,,,1001,001,2013_Jan_22_1028,FPVS,2021.2.2,120.06563496617713,
0,0,0,0,,,,,71,0,71,0,,,,,,,,,,,,,,,,,,,,,,,,,,,,,,,,,,,,,,,None,0,46.00786633627649,None,lemonade,cond1,cue,1,blue,46.00786633627649,None,46.00786633627649,None,46.00786633627649,46.107948712453435,,,,,,,,,,,,,,,,,,1001,001,2013_Jan_22_1028,FPVS,2021.2.2,120.06563496617713,
0,0,0,0,,,,,72,0,72,0,,,,,,,,,,,,,,,,,,,,,,,,,,,,,,,,,,,,,,,None,0,46.257973570196555,None,nest,none,none,7,blue,46.257973570196555,None,46.257973570196555,None,46.257973570196555,46.357976860414055,,,,,,,,,,,,,,,,,,1001,001,2013_Jan_22_1028,FPVS,2021.2.2,120.06563496617713,
0,0,0,0,,,,,73,0,73,0,,,,,,,,,,,,,,,,,,,,,,,,,,,,,,,,,,,,,,,None,0,46.50792323590758,None,waiter,none,none,7,blue,46.50792323590758,None,46.50792323590758,None,46.50792323590758,46.60799414160283,,,,,,,,,,,,,,,,,,1001,001,2013_Jan_22_1028,FPVS,2021.2.2,120.06563496617713,
0,0,0,0,,,,,74,0,74,0,,,,,,,,,,,,,,,,,,,,,,,,,,,,,,,,,,,,,,,None,0,46.75799364354134,None,hen,none,none,7,red,46.75799364354134,None,46.75799364354134,None,46.75799364354134,46.85796554085937,,,,,,,,,,,,,,,,,,1001,001,2013_Jan_22_1028,FPVS,2021.2.2,120.06563496617713,
0,0,0,0,,,,,75,0,75,0,,,,,,,,,,,,,,,,,,,,,,,,,,,,,,,,,,,,,,,None,0,47.00795477973588,None,soldier,cond1,cue,1,red,47.00795477973588,None,47.00795477973588,None,47.00795477973588,47.108035344783275,,,,,,,,,,,,,,,,,,1001,001,2013_Jan_22_1028,FPVS,2021.2.2,120.06563496617713,
0,0,0,0,,,,,76,0,76,0,,,,,,,,,,,,,,,,,,,,,,,,,,,,,,,,,,,,,,,None,0,47.25809521768497,None,spoon,none,none,7,blue,47.25809521768497,None,47.25809521768497,None,47.25809521768497,47.358099413466334,,,,,,,,,,,,,,,,,,1001,001,2013_Jan_22_1028,FPVS,2021.2.2,120.06563496617713,
0,0,0,0,,,,,77,0,77,0,,,,,,,,,,,,,,,,,,,,,,,,,,,,,,,,,,,,,,,None,0,47.50800020888346,None,goblet,none,none,7,blue,47.50800020888346,None,47.50800020888346,None,47.50800020888346,47.608069303449156,,,,,,,,,,,,,,,,,,1001,001,2013_Jan_22_1028,FPVS,2021.2.2,120.06563496617713,
0,0,0,0,,,,,78,0,78,0,,,,,,,,,,,,,,,,,,,,,,,,,,,,,,,,,,,,,,,None,0,47.75809778344956,None,jet,none,none,7,blue,47.75809778344956,None,47.75809778344956,None,47.75809778344956,47.85810409221631,,,,,,,,,,,,,,,,,,1001,001,2013_Jan_22_1028,FPVS,2021.2.2,120.06563496617713,
0,0,0,0,,,,,79,0,79,0,,,,,,,,,,,,,,,,,,,,,,,,,,,,,,,,,,,,,,,None,0,48.00813498705429,None,pin,cond1,cue,1,blue,48.00813498705429,None,48.00813498705429,None,48.00813498705429,48.10807277477943,,,,,,,,,,,,,,,,,,1001,001,2013_Jan_22_1028,FPVS,2021.2.2,120.06563496617713,
0,0,0,0,,,,,80,0,80,0,,,,,,,,,,,,,,,,,,,,,,,,,,,,,,,,,,,,,,,None,0,48.25814079775955,None,train,none,none,7,blue,48.25814079775955,None,48.25814079775955,None,48.25814079775955,48.35807979290439,,,,,,,,,,,,,,,,,,1001,001,2013_Jan_22_1028,FPVS,2021.2.2,120.06563496617713,
0,0,0,0,,,,,81,0,81,0,,,,,,,,,,,,,,,,,,,,,,,,,,,,,,,,,,,,,,,None,0,48.50815415483521,None,student,none,none,7,blue,48.50815415483521,None,48.50815415483521,None,48.50815415483521,48.608157143198696,,,,,,,,,,,,,,,,,,1001,001,2013_Jan_22_1028,FPVS,2021.2.2,120.06563496617713,
0,0,0,0,,,,,82,0,82,0,,,,,,,,,,,,,,,,,,,,,,,,,,,,,,,,,,,,,,,None,0,48.749838432215256,None,hamster,none,none,7,blue,48.749838432215256,None,48.749838432215256,None,48.749838432215256,48.84980791469388,,,,,,,,,,,,,,,,,,1001,001,2013_Jan_22_1028,FPVS,2021.2.2,120.06563496617713,
0,0,0,0,,,,,83,0,83,0,,,,,,,,,,,,,,,,,,,,,,,,,,,,,,,,,,,,,,,None,0,48.99986386348246,None,oyster,cond1,cue,1,blue,48.99986386348246,None,48.99986386348246,None,48.99986386348246,49.09989764103557,,,,,,,,,,,,,,,,,,1001,001,2013_Jan_22_1028,FPVS,2021.2.2,120.06563496617713,
0,0,0,0,,,,,84,0,84,0,,,,,,,,,,,,,,,,,,,,,,,,,,,,,,,,,,,,,,,None,0,49.249889898459514,None,costume,none,none,7,blue,49.249889898459514,None,49.249889898459514,None,49.249889898459514,49.34988775529018,,,,,,,,,,,,,,,,,,1001,001,2013_Jan_22_1028,FPVS,2021.2.2,120.06563496617713,
0,0,0,0,,,,,85,0,85,0,,,,,,,,,,,,,,,,,,,,,,,,,,,,,,,,,,,,,,,None,0,49.499893294325375,None,butcher,none,none,7,blue,49.499893294325375,None,49.499893294325375,None,49.499893294325375,49.59989990494614,,,,,,,,,,,,,,,,,,1001,001,2013_Jan_22_1028,FPVS,2021.2.2,120.06563496617713,
0,0,0,0,,,,,86,0,86,0,,,,,,,,,,,,,,,,,,,,,,,,,,,,,,,,,,,,,,,None,0,49.75819648997276,None,bath,none,none,7,blue,49.75819648997276,None,49.75819648997276,None,49.75819648997276,49.85820672285081,,,,,,,,,,,,,,,,,,1001,001,2013_Jan_22_1028,FPVS,2021.2.2,120.06563496617713,
0,0,0,0,,,,,87,0,87,0,,,,,,,,,,,,,,,,,,,,,,,,,,,,,,,,,,,,,,,None,0,49.99165220530631,None,elephant,cond1,cue,1,blue,49.99165220530631,None,49.99165220530631,None,49.99165220530631,50.09160931173756,,,,,,,,,,,,,,,,,,1001,001,2013_Jan_22_1028,FPVS,2021.2.2,120.06563496617713,
0,0,0,0,,,,,88,0,88,0,,,,,,,,,,,,,,,,,,,,,,,,,,,,,,,,,,,,,,,None,0,50.249990717964465,None,blade,none,none,7,red,50.249990717964465,None,50.249990717964465,None,50.249990717964465,50.34996835052334,,,,,,,,,,,,,,,,,,1001,001,2013_Jan_22_1028,FPVS,2021.2.2,120.06563496617713,
0,0,0,0,,,,,89,0,89,0,,,,,,,,,,,,,,,,,,,,,,,,,,,,,,,,,,,,,,,space,0,50.49991593343657,None,sheep,none,none,7,red,50.49991593343657,None,50.49991593343657,None,50.49991593343657,50.6000387581571,0.12184912632619671,,,,,,,,,,,,,,,,,1001,001,2013_Jan_22_1028,FPVS,2021.2.2,120.06563496617713,
0,0,0,0,,,,,90,0,90,0,,,,,,,,,,,,,,,,,,,,,,,,,,,,,,,,,,,,,,,None,0,50.750012300582966,None,lobster,none,none,7,blue,50.750012300582966,None,50.750012300582966,None,50.750012300582966,50.850021929751165,,,,,,,,,,,,,,,,,,1001,001,2013_Jan_22_1028,FPVS,2021.2.2,120.06563496617713,
0,0,0,0,,,,,91,0,91,0,,,,,,,,,,,,,,,,,,,,,,,,,,,,,,,,,,,,,,,None,0,51.00002475209476,None,sand,cond1,cue,1,blue,51.00002475209476,None,51.00002475209476,None,51.00002475209476,51.100023514489294,,,,,,,,,,,,,,,,,,1001,001,2013_Jan_22_1028,FPVS,2021.2.2,120.06563496617713,
0,0,0,0,,,,,92,0,92,0,,,,,,,,,,,,,,,,,,,,,,,,,,,,,,,,,,,,,,,None,0,51.24170389794199,None,coin,none,none,7,red,51.24170389794199,None,51.24170389794199,None,51.24170389794199,51.34171775307732,,,,,,,,,,,,,,,,,,1001,001,2013_Jan_22_1028,FPVS,2021.2.2,120.06563496617713,
0,0,0,0,,,,,93,0,93,0,,,,,,,,,,,,,,,,,,,,,,,,,,,,,,,,,,,,,,,None,0,51.50005569221139,None,palm,none,none,7,red,51.50005569221139,None,51.50005569221139,None,51.50005569221139,51.6000260802557,,,,,,,,,,,,,,,,,,1001,001,2013_Jan_22_1028,FPVS,2021.2.2,120.06563496617713,
0,0,0,0,,,,,94,0,94,0,,,,,,,,,,,,,,,,,,,,,,,,,,,,,,,,,,,,,,,space,0,51.75004550461199,None,magazine,none,none,7,blue,51.75004550461199,None,51.75004550461199,None,51.75004550461199,51.85010101571061,0.18371064681196003,,,,,,,,,,,,,,,,,1001,001,2013_Jan_22_1028,FPVS,2021.2.2,120.06563496617713,
0,0,0,0,,,,,95,0,95,0,,,,,,,,,,,,,,,,,,,,,,,,,,,,,,,,,,,,,,,None,0,51.991769324971756,None,oyster,cond1,cue,1,blue,51.991769324971756,None,51.991769324971756,None,51.991769324971756,52.09176687994659,,,,,,,,,,,,,,,,,,1001,001,2013_Jan_22_1028,FPVS,2021.2.2,120.06563496617713,
0,0,0,0,,,,,96,0,96,0,,,,,,,,,,,,,,,,,,,,,,,,,,,,,,,,,,,,,,,None,0,52.24180532115679,None,farm,none,none,7,blue,52.24180532115679,None,52.24180532115679,None,52.24180532115679,52.341847248790145,,,,,,,,,,,,,,,,,,1001,001,2013_Jan_22_1028,FPVS,2021.2.2,120.06563496617713,
0,0,0,0,,,,,97,0,97,0,,,,,,,,,,,,,,,,,,,,,,,,,,,,,,,,,,,,,,,None,0,52.491809018878484,None,ham,none,none,7,blue,52.491809018878484,None,52.491809018878484,None,52.491809018878484,52.59176642716557,,,,,,,,,,,,,,,,,,1001,001,2013_Jan_22_1028,FPVS,2021.2.2,120.06563496617713,
0,0,0,0,,,,,98,0,98,0,,,,,,,,,,,,,,,,,,,,,,,,,,,,,,,,,,,,,,,None,0,52.74183746869312,None,mule,none,none,7,red,52.74183746869312,None,52.74183746869312,None,52.74183746869312,52.841791556576936,,,,,,,,,,,,,,,,,,1001,001,2013_Jan_22_1028,FPVS,2021.2.2,120.06563496617713,
0,0,0,0,,,,,99,0,99,0,,,,,,,,,,,,,,,,,,,,,,,,,,,,,,,,,,,,,,,space,0,52.99188463350765,None,otter,cond1,cue,1,red,52.99188463350765,None,52.99188463350765,None,52.99188463350765,53.091869812436926,0.10981628814624855,,,,,,,,,,,,,,,,,1001,001,2013_Jan_22_1028,FPVS,2021.2.2,120.06563496617713,
0,0,0,0,,,,,100,0,100,0,,,,,,,,,,,,,,,,,,,,,,,,,,,,,,,,,,,,,,,None,0,53.241881690422815,None,swing,none,none,7,blue,53.241881690422815,None,53.241881690422815,None,53.241881690422815,53.34191456241206,,,,,,,,,,,,,,,,,,1001,001,2013_Jan_22_1028,FPVS,2021.2.2,120.06563496617713,
0,0,0,0,,,,,101,0,101,0,,,,,,,,,,,,,,,,,,,,,,,,,,,,,,,,,,,,,,,None,0,53.500227447597354,None,fork,none,none,7,blue,53.500227447597354,None,53.500227447597354,None,53.500227447597354,53.60017730951404,,,,,,,,,,,,,,,,,,1001,001,2013_Jan_22_1028,FPVS,2021.2.2,120.06563496617713,
0,0,0,0,,,,,102,0,102,0,,,,,,,,,,,,,,,,,,,,,,,,,,,,,,,,,,,,,,,None,0,53.75025891596124,None,forest,none,none,7,blue,53.75025891596124,None,53.75025891596124,None,53.75025891596124,53.850287260127516,,,,,,,,,,,,,,,,,,1001,001,2013_Jan_22_1028,FPVS,2021.2.2,120.06563496617713,
0,0,0,0,,,,,103,0,103,0,,,,,,,,,,,,,,,,,,,,,,,,,,,,,,,,,,,,,,,None,0,54.00027951755146,None,mango,cond1,cue,1,blue,54.00027951755146,None,54.00027951755146,None,54.00027951755146,54.10030665429804,,,,,,,,,,,,,,,,,,1001,001,2013_Jan_22_1028,FPVS,2021.2.2,120.06563496617713,
0,0,0,0,,,,,104,0,104,0,,,,,,,,,,,,,,,,,,,,,,,,,,,,,,,,,,,,,,,None,0,54.25031823042991,None,rust,none,none,7,blue,54.25031823042991,None,54.25031823042991,None,54.25031823042991,54.350292844441356,,,,,,,,,,,,,,,,,,1001,001,2013_Jan_22_1028,FPVS,2021.2.2,120.06563496617713,
0,0,0,0,,,,,105,0,105,0,,,,,,,,,,,,,,,,,,,,,,,,,,,,,,,,,,,,,,,None,0,54.50029204452585,None,spider,none,none,7,blue,54.50029204452585,None,54.50029204452585,None,54.50029204452585,54.600342725947485,,,,,,,,,,,,,,,,,,1001,001,2013_Jan_22_1028,FPVS,2021.2.2,120.06563496617713,
0,0,0,0,,,,,106,0,106,0,,,,,,,,,,,,,,,,,,,,,,,,,,,,,,,,,,,,,,,None,0,54.75033739821083,None,statue,none,none,7,blue,54.75033739821083,None,54.75033739821083,None,54.75033739821083,54.85031774746312,,,,,,,,,,,,,,,,,,1001,001,2013_Jan_22_1028,FPVS,2021.2.2,120.06563496617713,
0,0,0,0,,,,,107,0,107,0,,,,,,,,,,,,,,,,,,,,,,,,,,,,,,,,,,,,,,,None,0,55.00029068617914,None,ocean,cond1,cue,1,blue,55.00029068617914,None,55.00029068617914,None,55.00029068617914,55.10040505896541,,,,,,,,,,,,,,,,,,1001,001,2013_Jan_22_1028,FPVS,2021.2.2,120.06563496617713,
0,0,0,0,,,,,108,0,108,0,,,,,,,,,,,,,,,,,,,,,,,,,,,,,,,,,,,,,,,None,0,55.25037256429641,None,scalp,none,none,7,blue,55.25037256429641,None,55.25037256429641,None,55.25037256429641,55.35034144306519,,,,,,,,,,,,,,,,,,1001,001,2013_Jan_22_1028,FPVS,2021.2.2,120.06563496617713,
0,0,0,0,,,,,109,0,109,0,,,,,,,,,,,,,,,,,,,,,,,,,,,,,,,,,,,,,,,None,0,55.50040071225703,None,onion,none,none,7,red,55.50040071225703,None,55.50040071225703,None,55.50040071225703,55.60033970740005,,,,,,,,,,,,,,,,,,1001,001,2013_Jan_22_1028,FPVS,2021.2.2,120.06563496617713,
0,0,0,0,,,,,110,0,110,0,,,,,,,,,,,,,,,,,,,,,,,,,,,,,,,,,,,,,,,space,0,55.75042282312097,None,soccer,none,none,7,red,55.75042282312097,None,55.75042282312097,None,55.75042282312097,55.85047682494587,0.21520949780096998,,,,,,,,,,,,,,,,,1001,001,2013_Jan_22_1028,FPVS,2021.2.2,120.06563496617713,
0,0,0,0,,,,,111,0,111,0,,,,,,,,,,,,,,,,,,,,,,,,,,,,,,,,,,,,,,,None,0,56.00044312285718,None,lemonade,cond1,cue,1,blue,56.00044312285718,None,56.00044312285718,None,56.00044312285718,56.10045848726622,,,,,,,,,,,,,,,,,,1001,001,2013_Jan_22_1028,FPVS,2021.2.2,120.06563496617713,
0,0,0,0,,,,,112,0,112,0,,,,,,,,,,,,,,,,,,,,,,,,,,,,,,,,,,,,,,,None,0,56.25038826074524,None,net,none,none,7,blue,56.25038826074524,None,56.25038826074524,None,56.25038826074524,56.350477277728714,,,,,,,,,,,,,,,,,,1001,001,2013_Jan_22_1028,FPVS,2021.2.2,120.06563496617713,
0,0,0,0,,,,,113,0,113,0,,,,,,,,,,,,,,,,,,,,,,,,,,,,,,,,,,,,,,,None,0,56.50042516249596,None,cow,none,none,7,red,56.50042516249596,None,56.50042516249596,None,56.50042516249596,56.60046799569318,,,,,,,,,,,,,,,,,,1001,001,2013_Jan_22_1028,FPVS,2021.2.2,120.06563496617713,
0,0,0,0,,,,,114,0,114,0,,,,,,,,,,,,,,,,,,,,,,,,,,,,,,,,,,,,,,,space,0,56.75043972699132,None,beak,none,none,7,red,56.75043972699132,None,56.75043972699132,None,56.75043972699132,56.85046807115759,0.14317365918395808,,,,,,,,,,,,,,,,,1001,001,2013_Jan_22_1028,FPVS,2021.2.2,120.06563496617713,
0,0,0,0,,,,,115,0,115,0,,,,,,,,,,,,,,,,,,,,,,,,,,,,,,,,,,,,,,,None,0,57.00053035889687,None,otter,cond1,cue,1,blue,57.00053035889687,None,57.00053035889687,None,57.00053035889687,57.10053304540452,,,,,,,,,,,,,,,,,,1001,001,2013_Jan_22_1028,FPVS,2021.2.2,120.06563496617713,
0,0,0,0,,,,,116,0,116,0,,,,,,,,,,,,,,,,,,,,,,,,,,,,,,,,,,,,,,,None,0,57.25054643266412,None,brush,none,none,7,blue,57.25054643266412,None,57.25054643266412,None,57.25054643266412,57.350552741430874,,,,,,,,,,,,,,,,,,1001,001,2013_Jan_22_1028,FPVS,2021.2.2,120.06563496617713,
0,0,0,0,,,,,117,0,117,0,,,,,,,,,,,,,,,,,,,,,,,,,,,,,,,,,,,,,,,None,0,57.500566430546314,None,boat,none,none,7,blue,57.500566430546314,None,57.500566430546314,None,57.500566430546314,57.60051146278602,,,,,,,,,,,,,,,,,,1001,001,2013_Jan_22_1028,FPVS,2021.2.2,120.06563496617713,
0,0,0,0,,,,,118,0,118,0,,,,,,,,,,,,,,,,,,,,,,,,,,,,,,,,,,,,,,,None,0,57.75060061560362,None,cheek,none,none,7,blue,57.75060061560362,None,57.75060061560362,None,57.75060061560362,57.85052753655327,,,,,,,,,,,,,,,,,,1001,001,2013_Jan_22_1028,FPVS,2021.2.2,120.06563496617713,
0,0,0,0,,,,,119,0,119,0,,,,,,,,,,,,,,,,,,,,,,,,,,,,,,,,,,,,,,,None,0,57.99224716113167,None,tent,cond1,cue,1,blue,57.99224716113167,None,57.99224716113167,None,57.99224716113167,58.09227278860453,,,,,,,,,,,,,,,,,,1001,001,2013_Jan_22_1028,FPVS,2021.2.2,120.06563496617713,
0,0,0,0,,,,,120,0,120,0,,,,,,,,,,,,,,,,,,,,,,,,,,,,,,,,,,,,,,,None,0,58.242330850376675,None,squirrel,none,none,7,blue,58.242330850376675,None,58.242330850376675,None,58.242330850376675,58.34227407148683,,,,,,,,,,,,,,,,,,1001,001,2013_Jan_22_1028,FPVS,2021.2.2,120.06563496617713,
0,0,0,0,,,,,121,0,121,0,,,,,,,,,,,,,,,,,,,,,,,,,,,,,,,,,,,,,,,None,0,58.4923288128557,None,temple,none,none,7,blue,58.4923288128557,None,58.4923288128557,None,58.4923288128557,58.59233663089617,,,,,,,,,,,,,,,,,,1001,001,2013_Jan_22_1028,FPVS,2021.2.2,120.06563496617713,
0,0,0,0,,,,,122,0,122,0,,,,,,,,,,,,,,,,,,,,,,,,,,,,,,,,,,,,,,,None,0,58.75067215519266,None,stadium,none,none,7,red,58.75067215519266,None,58.75067215519266,None,58.75067215519266,58.850659748959515,,,,,,,,,,,,,,,,,,1001,001,2013_Jan_22_1028,FPVS,2021.2.2,120.06563496617713,
0,0,0,0,,,,,123,0,123,0,,,,,,,,,,,,,,,,,,,,,,,,,,,,,,,,,,,,,,,space,0,59.00070211428101,None,oyster,cond1,cue,1,red,59.00070211428101,None,59.00070211428101,None,59.00070211428101,59.10069212288727,0.06887964475208719,,,,,,,,,,,,,,,,,1001,001,2013_Jan_22_1028,FPVS,2021.2.2,120.06563496617713,
0,0,0,0,,,,,124,0,124,0,,,,,,,,,,,,,,,,,,,,,,,,,,,,,,,,,,,,,,,None,0,59.242470005441646,None,concrete,none,none,7,blue,59.242470005441646,None,59.242470005441646,None,59.242470005441646,59.34232719793363,,,,,,,,,,,,,,,,,,1001,001,2013_Jan_22_1028,FPVS,2021.2.2,120.06563496617713,
0,0,0,0,,,,,125,0,125,0,,,,,,,,,,,,,,,,,,,,,,,,,,,,,,,,,,,,,,,None,0,59.49240186172028,None,broom,none,none,7,blue,59.49240186172028,None,59.49240186172028,None,59.49240186172028,59.592406359355664,,,,,,,,,,,,,,,,,,1001,001,2013_Jan_22_1028,FPVS,2021.2.2,120.06563496617713,
0,0,0,0,,,,,126,0,126,0,,,,,,,,,,,,,,,,,,,,,,,,,,,,,,,,,,,,,,,None,0,59.742360583075424,None,pig,none,none,7,blue,59.742360583075424,None,59.742360583075424,None,59.742360583075424,59.84243420546227,,,,,,,,,,,,,,,,,,1001,001,2013_Jan_22_1028,FPVS,2021.2.2,120.06563496617713,
0,0,0,0,,,,,127,0,127,0,,,,,,,,,,,,,,,,,,,,,,,,,,,,,,,,,,,,,,,None,0,60.0008032356418,None,soldier,cond1,cue,1,blue,60.0008032356418,None,60.0008032356418,None,60.0008032356418,60.10081678892311,,,,,,,,,,,,,,,,,,1001,001,2013_Jan_22_1028,FPVS,2021.2.2,120.06563496617713,
0,0,0,0,,,,,128,0,128,0,,,,,,,,,,,,,,,,,,,,,,,,,,,,,,,,,,,,,,,None,0,60.25080693336349,None,stamp,none,none,7,blue,60.25080693336349,None,60.25080693336349,None,60.25080693336349,60.35074502294265,,,,,,,,,,,,,,,,,,1001,001,2013_Jan_22_1028,FPVS,2021.2.2,120.06563496617713,
0,0,0,0,,,,,129,0,129,0,,,,,,,,,,,,,,,,,,,,,,,,,,,,,,,,,,,,,,,None,0,60.5008248182603,None,monkey,none,none,7,red,60.5008248182603,None,60.5008248182603,None,60.5008248182603,60.60078826364406,,,,,,,,,,,,,,,,,,1001,001,2013_Jan_22_1028,FPVS,2021.2.2,120.06563496617713,
0,0,0,0,,,,,130,0,130,0,,,,,,,,,,,,,,,,,,,,,,,,,,,,,,,,,,,,,,,space,0,60.7508514569472,None,jungle,none,none,7,red,60.7508514569472,None,60.7508514569472,None,60.7508514569472,60.85078441499536,0.09469396601161861,,,,,,,,,,,,,,,,,1001,001,2013_Jan_22_1028,FPVS,2021.2.2,120.06563496617713,
0,0,0,0,,,,,131,0,131,0,,,,,,,,,,,,,,,,,,,,,,,,,,,,,,,,,,,,,,,None,0,61.00085485281488,None,sand,cond1,cue,1,blue,61.00085485281488,None,61.00085485281488,None,61.00085485281488,61.100894063753,,,,,,,,,,,,,,,,,,1001,001,2013_Jan_22_1028,FPVS,2021.2.2,120.06563496617713,
0,0,0,0,,,,,132,0,132,0,,,,,,,,,,,,,,,,,,,,,,,,,,,,,,,,,,,,,,,None,0,61.25089598053091,None,worm,none,none,7,blue,61.25089598053091,None,61.25089598053091,None,61.25089598053091,61.35082531632179,,,,,,,,,,,,,,,,,,1001,001,2013_Jan_22_1028,FPVS,2021.2.2,120.06563496617713,
0,0,0,0,,,,,133,0,133,0,,,,,,,,,,,,,,,,,,,,,,,,,,,,,,,,,,,,,,,None,0,61.500901791236174,None,camel,none,none,7,blue,61.500901791236174,None,61.500901791236174,None,61.500901791236174,61.60092289088789,,,,,,,,,,,,,,,,,,1001,001,2013_Jan_22_1028,FPVS,2021.2.2,120.06563496617713,
0,0,0,0,,,,,134,0,134,0,,,,,,,,,,,,,,,,,,,,,,,,,,,,,,,,,,,,,,,None,0,61.75086443670443,None,muzzle,none,none,7,blue,61.75086443670443,None,61.75086443670443,None,61.75086443670443,61.850842974827174,,,,,,,,,,,,,,,,,,1001,001,2013_Jan_22_1028,FPVS,2021.2.2,120.06563496617713,
0,0,0,0,,,,,135,0,135,0,,,,,,,,,,,,,,,,,,,,,,,,,,,,,,,,,,,,,,,None,0,62.00094722038557,None,ocean,cond1,cue,1,blue,62.00094722038557,None,62.00094722038557,None,62.00094722038557,62.100952623586636,,,,,,,,,,,,,,,,,,1001,001,2013_Jan_22_1028,FPVS,2021.2.2,120.06563496617713,
0,0,0,0,,,,,136,0,136,0,,,,,,,,,,,,,,,,,,,,,,,,,,,,,,,,,,,,,,,None,0,62.25097204794292,None,drawer,none,none,7,blue,62.25097204794292,None,62.25097204794292,None,62.25097204794292,62.35097201775716,,,,,,,,,,,,,,,,,,1001,001,2013_Jan_22_1028,FPVS,2021.2.2,120.06563496617713,
0,0,0,0,,,,,137,0,137,0,,,,,,,,,,,,,,,,,,,,,,,,,,,,,,,,,,,,,,,None,0,62.50099476251671,None,pipe,none,none,7,blue,62.50099476251671,None,62.50099476251671,None,62.50099476251671,62.600930437258285,,,,,,,,,,,,,,,,,,1001,001,2013_Jan_22_1028,FPVS,2021.2.2,120.06563496617713,
0,0,0,0,,,,,138,0,138,0,,,,,,,,,,,,,,,,,,,,,,,,,,,,,,,,,,,,,,,None,0,62.74267994546062,None,baton,none,none,7,blue,62.74267994546062,None,62.74267994546062,None,62.74267994546062,62.842660898422764,,,,,,,,,,,,,,,,,,1001,001,2013_Jan_22_1028,FPVS,2021.2.2,120.06563496617713,
0,0,0,0,,,,,139,0,139,0,,,,,,,,,,,,,,,,,,,,,,,,,,,,,,,,,,,,,,,None,0,62.992638063105915,None,egg,cond1,cue,1,blue,62.992638063105915,None,62.992638063105915,None,62.992638063105915,63.092664897998475,,,,,,,,,,,,,,,,,,1001,001,2013_Jan_22_1028,FPVS,2021.2.2,120.06563496617713,
0,0,0,0,,,,,140,0,140,0,,,,,,,,,,,,,,,,,,,,,,,,,,,,,,,,,,,,,,,None,0,63.2426846242106,None,camera,none,none,7,blue,63.2426846242106,None,63.2426846242106,None,63.2426846242106,63.34275190764674,,,,,,,,,,,,,,,,,,1001,001,2013_Jan_22_1028,FPVS,2021.2.2,120.06563496617713,
0,0,0,0,,,,,141,0,141,0,,,,,,,,,,,,,,,,,,,,,,,,,,,,,,,,,,,,,,,None,0,63.4927124703172,None,mug,none,none,7,blue,63.4927124703172,None,63.4927124703172,None,63.4927124703172,63.592758925771705,,,,,,,,,,,,,,,,,,1001,001,2013_Jan_22_1028,FPVS,2021.2.2,120.06563496617713,
0,0,0,0,,,,,142,0,142,0,,,,,,,,,,,,,,,,,,,,,,,,,,,,,,,,,,,,,,,None,0,63.7427493720661,None,peanut,none,none,7,blue,63.7427493720661,None,63.7427493720661,None,63.7427493720661,63.84280156276327,,,,,,,,,,,,,,,,,,1001,001,2013_Jan_22_1028,FPVS,2021.2.2,120.06563496617713,
0,0,0,0,,,,,143,0,143,0,,,,,,,,,,,,,,,,,,,,,,,,,,,,,,,,,,,,,,,None,0,63.99277963301029,None,tent,cond1,cue,1,red,63.99277963301029,None,63.99277963301029,None,63.99277963301029,64.0927817158099,,,,,,,,,,,,,,,,,,1001,001,2013_Jan_22_1028,FPVS,2021.2.2,120.06563496617713,
0,0,0,0,,,,,144,0,144,0,,,,,,,,,,,,,,,,,,,,,,,,,,,,,,,,,,,,,,,space,0,64.24271873380349,None,flask,none,none,7,red,64.24271873380349,None,64.24271873380349,None,64.24271873380349,64.34278330054622,0.13873880835490127,,,,,,,,,,,,,,,,,1001,001,2013_Jan_22_1028,FPVS,2021.2.2,120.06563496617713,
0,0,0,0,,,,,145,0,145,0,,,,,,,,,,,,,,,,,,,,,,,,,,,,,,,,,,,,,,,None,0,64.49283049554651,None,pony,none,none,7,red,64.49283049554651,None,64.49283049554651,None,64.49283049554651,64.59285944342264,,,,,,,,,,,,,,,,,,1001,001,2013_Jan_22_1028,FPVS,2021.2.2,120.06563496617713,
0,0,0,0,,,,,146,0,146,0,,,,,,,,,,,,,,,,,,,,,,,,,,,,,,,,,,,,,,,None,0,64.74286407689397,None,vine,none,none,7,red,64.74286407689397,None,64.74286407689397,None,64.74286407689397,64.84285619848197,,,,,,,,,,,,,,,,,,1001,001,2013_Jan_22_1028,FPVS,2021.2.2,120.06563496617713,
0,0,0,0,,,,,147,0,147,0,,,,,,,,,,,,,,,,,,,,,,,,,,,,,,,,,,,,,,,space,0,65.00120409882584,None,mango,cond1,cue,1,blue,65.00120409882584,None,65.00120409882584,None,65.00120409882584,65.10123183928226,0.06818115272835712,,,,,,,,,,,,,,,,,1001,001,2013_Jan_22_1028,FPVS,2021.2.2,120.06563496617713,
0,0,0,0,,,,,148,0,148,0,,,,,,,,,,,,,,,,,,,,,,,,,,,,,,,,,,,,,,,None,0,65.24293244700675,None,salad,none,none,7,blue,65.24293244700675,None,65.24293244700675,None,65.24293244700675,65.34287747924645,,,,,,,,,,,,,,,,,,1001,001,2013_Jan_22_1028,FPVS,2021.2.2,120.06563496617713,
0,0,0,0,,,,,149,0,149,0,,,,,,,,,,,,,,,,,,,,,,,,,,,,,,,,,,,,,,,None,0,65.49290263884541,None,scissors,none,none,7,blue,65.49290263884541,None,65.49290263884541,None,65.49290263884541,65.59290924946436,,,,,,,,,,,,,,,,,,1001,001,2013_Jan_22_1028,FPVS,2021.2.2,120.06563496617713,
0,0,0,0,,,,,150,0,150,0,,,,,,,,,,,,,,,,,,,,,,,,,,,,,,,,,,,,,,,None,0,65.7429241459995,None,dress,none,none,7,blue,65.7429241459995,None,65.7429241459995,None,65.7429241459995,65.84288608210954,,,,,,,,,,,,,,,,,,1001,001,2013_Jan_22_1028,FPVS,2021.2.2,120.06563496617713,
0,0,0,0,,,,,151,0,151,0,,,,,,,,,,,,,,,,,,,,,,,,,,,,,,,,,,,,,,,None,0,66.00128378849513,None,rope,cond1,cue,1,blue,66.00128378849513,None,66.00128378849513,None,66.00128378849513,66.10129130467976,,,,,,,,,,,,,,,,,,1001,001,2013_Jan_22_1028,FPVS,2021.2.2,120.06563496617713,
0,0,0,0,,,,,152,0,152,0,,,,,,,,,,,,,,,,,,,,,,,,,,,,,,,,,,,,,,,None,0,66.25131042718203,None,cable,none,none,7,blue,66.25131042718203,None,66.25131042718203,None,66.25131042718203,66.35132579159108,,,,,,,,,,,,,,,,,,1001,001,2013_Jan_22_1028,FPVS,2021.2.2,120.06563496617713,
0,0,0,0,,,,,153,0,153,0,,,,,,,,,,,,,,,,,,,,,,,,,,,,,,,,,,,,,,,None,0,66.50126009289306,None,alley,none,none,7,blue,66.50126009289306,None,66.50126009289306,None,66.50126009289306,66.60125764786972,,,,,,,,,,,,,,,,,,1001,001,2013_Jan_22_1028,FPVS,2021.2.2,120.06563496617713,
0,0,0,0,,,,,154,0,154,0,,,,,,,,,,,,,,,,,,,,,,,,,,,,,,,,,,,,,,,None,0,66.74301258945889,None,valley,none,none,7,blue,66.74301258945889,None,66.74301258945889,None,66.74301258945889,66.84294252895779,,,,,,,,,,,,,,,,,,1001,001,2013_Jan_22_1028,FPVS,2021.2.2,120.06563496617713,
0,0,0,0,,,,,155,0,155,0,,,,,,,,,,,,,,,,,,,,,,,,,,,,,,,,,,,,,,,None,0,66.99302504096886,None,menu,cond1,cue,1,blue,66.99302504096886,None,66.99302504096886,None,66.99302504096886,67.09304463134686,,,,,,,,,,,,,,,,,,1001,001,2013_Jan_22_1028,FPVS,2021.2.2,120.06563496617713,
0,0,0,0,,,,,156,0,156,0,,,,,,,,,,,,,,,,,,,,,,,,,,,,,,,,,,,,,,,None,0,67.24305952788018,None,gown,none,none,7,red,67.24305952788018,None,67.24305952788018,None,67.24305952788018,67.34300395641185,,,,,,,,,,,,,,,,,,1001,001,2013_Jan_22_1028,FPVS,2021.2.2,120.06563496617713,
0,0,0,0,,,,,157,0,157,0,,,,,,,,,,,,,,,,,,,,,,,,,,,,,,,,,,,,,,,space,0,67.5013518567539,None,pond,none,none,7,red,67.5013518567539,None,67.5013518567539,None,67.5013518567539,67.60136299519581,0.06400982114791987,,,,,,,,,,,,,,,,,1001,001,2013_Jan_22_1028,FPVS,2021.2.2,120.06563496617713,
0,0,0,0,,,,,158,0,158,0,,,,,,,,,,,,,,,,,,,,,,,,,,,,,,,,,,,,,,,None,0,67.75143494228905,None,collar,none,none,7,blue,67.75143494228905,None,67.75143494228905,None,67.75143494228905,67.85144668444264,,,,,,,,,,,,,,,,,,1001,001,2013_Jan_22_1028,FPVS,2021.2.2,120.06563496617713,
0,0,0,0,,,,,159,0,159,0,,,,,,,,,,,,,,,,,,,,,,,,,,,,,,,,,,,,,,,None,0,67.9931243512001,None,mango,cond1,cue,1,blue,67.9931243512001,None,67.9931243512001,None,67.9931243512001,68.0931200950472,,,,,,,,,,,,,,,,,,1001,001,2013_Jan_22_1028,FPVS,2021.2.2,120.06563496617713,
0,0,0,0,,,,,160,0,160,0,,,,,,,,,,,,,,,,,,,,,,,,,,,,,,,,,,,,,,,None,0,68.2515015012741,None,soup,none,none,7,blue,68.2515015012741,None,68.2515015012741,None,68.2515015012741,68.35148486907565,,,,,,,,,,,,,,,,,,1001,001,2013_Jan_22_1028,FPVS,2021.2.2,120.06563496617713,
0,0,0,0,,,,,161,0,161,0,,,,,,,,,,,,,,,,,,,,,,,,,,,,,,,,,,,,,,,None,0,68.50143728166404,None,portrait,none,none,7,blue,68.50143728166404,None,68.50143728166404,None,68.50143728166404,68.60152026155083,,,,,,,,,,,,,,,,,,1001,001,2013_Jan_22_1028,FPVS,2021.2.2,120.06563496617713,
0,0,0,0,,,,,162,0,162,0,,,,,,,,,,,,,,,,,,,,,,,,,,,,,,,,,,,,,,,None,0,68.7515342525221,None,leopard,none,none,7,blue,68.7515342525221,None,68.7515342525221,None,68.7515342525221,68.8514702291177,,,,,,,,,,,,,,,,,,1001,001,2013_Jan_22_1028,FPVS,2021.2.2,120.06563496617713,
0,0,0,0,,,,,163,0,163,0,,,,,,,,,,,,,,,,,,,,,,,,,,,,,,,,,,,,,,,None,0,69.00155545782218,None,belt,cond1,cue,1,blue,69.00155545782218,None,69.00155545782218,None,69.00155545782218,69.10153550521864,,,,,,,,,,,,,,,,,,1001,001,2013_Jan_22_1028,FPVS,2021.2.2,120.06563496617713,
0,0,0,0,,,,,164,0,164,0,,,,,,,,,,,,,,,,,,,,,,,,,,,,,,,,,,,,,,,None,0,69.24322011463846,None,saucer,none,none,7,blue,69.24322011463846,None,69.24322011463846,None,69.24322011463846,69.34324876066057,,,,,,,,,,,,,,,,,,1001,001,2013_Jan_22_1028,FPVS,2021.2.2,120.06563496617713,
0,0,0,0,,,,,165,0,165,0,,,,,,,,,,,,,,,,,,,,,,,,,,,,,,,,,,,,,,,None,0,69.50153930858869,None,tree,none,none,7,blue,69.50153930858869,None,69.50153930858869,None,69.50153930858869,69.60152509122781,,,,,,,,,,,,,,,,,,1001,001,2013_Jan_22_1028,FPVS,2021.2.2,120.06563496617713,
0,0,0,0,,,,,166,0,166,0,,,,,,,,,,,,,,,,,,,,,,,,,,,,,,,,,,,,,,,None,0,69.75152097091086,None,medicine,none,none,7,blue,69.75152097091086,None,69.75152097091086,None,69.75152097091086,69.85160455450568,,,,,,,,,,,,,,,,,,1001,001,2013_Jan_22_1028,FPVS,2021.2.2,120.06563496617713,
0,0,0,0,,,,,167,0,167,0,,,,,,,,,,,,,,,,,,,,,,,,,,,,,,,,,,,,,,,None,0,70.00161854547696,None,sand,cond1,cue,1,blue,70.00161854547696,None,70.00161854547696,None,70.00161854547696,70.10162334496817,,,,,,,,,,,,,,,,,,1001,001,2013_Jan_22_1028,FPVS,2021.2.2,120.06563496617713,
0,0,0,0,,,,,168,0,168,0,,,,,,,,,,,,,,,,,,,,,,,,,,,,,,,,,,,,,,,None,0,70.25157998352552,None,claw,none,none,7,red,70.25157998352552,None,70.25157998352552,None,70.25157998352552,70.35158810342,,,,,,,,,,,,,,,,,,1001,001,2013_Jan_22_1028,FPVS,2021.2.2,120.06563496617713,
0,0,0,0,,,,,169,0,169,0,,,,,,,,,,,,,,,,,,,,,,,,,,,,,,,,,,,,,,,space,0,70.50166367277052,None,envelope,none,none,7,red,70.50166367277052,None,70.50166367277052,None,70.50166367277052,70.6016681704059,0.08760943368724838,,,,,,,,,,,,,,,,,1001,001,2013_Jan_22_1028,FPVS,2021.2.2,120.06563496617713,
0,0,0,0,,,,,170,0,170,0,,,,,,,,,,,,,,,,,,,,,,,,,,,,,,,,,,,,,,,None,0,70.75168608549029,None,pot,none,none,7,blue,70.75168608549029,None,70.75168608549029,None,70.75168608549029,70.85166643474076,,,,,,,,,,,,,,,,,,1001,001,2013_Jan_22_1028,FPVS,2021.2.2,120.06563496617713,
0,0,0,0,,,,,171,0,171,0,,,,,,,,,,,,,,,,,,,,,,,,,,,,,,,,,,,,,,,None,0,71.00170698893453,None,yogurt,cond1,cue,1,blue,71.00170698893453,None,71.00170698893453,None,71.00170698893453,71.1017123921356,,,,,,,,,,,,,,,,,,1001,001,2013_Jan_22_1028,FPVS,2021.2.2,120.06563496617713,
0,0,0,0,,,,,172,0,172,0,,,,,,,,,,,,,,,,,,,,,,,,,,,,,,,,,,,,,,,None,0,71.25173242020173,None,cradle,none,none,7,blue,71.25173242020173,None,71.25173242020173,None,71.25173242020173,71.35173691783893,,,,,,,,,,,,,,,,,,1001,001,2013_Jan_22_1028,FPVS,2021.2.2,120.06563496617713,
0,0,0,0,,,,,173,0,173,0,,,,,,,,,,,,,,,,,,,,,,,,,,,,,,,,,,,,,,,None,0,71.50174396614966,None,bar,none,none,7,blue,71.50174396614966,None,71.50174396614966,None,71.50174396614966,71.60174423781791,,,,,,,,,,,,,,,,,,1001,001,2013_Jan_22_1028,FPVS,2021.2.2,120.06563496617713,
0,0,0,0,,,,,174,0,174,0,,,,,,,,,,,,,,,,,,,,,,,,,,,,,,,,,,,,,,,None,0,71.75170359306867,None,brick,none,none,7,red,71.75170359306867,None,71.75170359306867,None,71.75170359306867,71.851712316673,,,,,,,,,,,,,,,,,,1001,001,2013_Jan_22_1028,FPVS,2021.2.2,120.06563496617713,
0,0,0,0,,,,,175,0,175,0,,,,,,,,,,,,,,,,,,,,,,,,,,,,,,,,,,,,,,,space,0,71.99346122116549,None,turtle,cond1,cue,1,red,71.99346122116549,None,71.99346122116549,None,71.99346122116549,72.09346481323882,0.1477277426620276,,,,,,,,,,,,,,,,,1001,001,2013_Jan_22_1028,FPVS,2021.2.2,120.06563496617713,
0,0,0,0,,,,,176,0,176,0,,,,,,,,,,,,,,,,,,,,,,,,,,,,,,,,,,,,,,,None,0,72.24347065412803,None,helmet,none,none,7,blue,72.24347065412803,None,72.24347065412803,None,72.24347065412803,72.34349447047316,,,,,,,,,,,,,,,,,,1001,001,2013_Jan_22_1028,FPVS,2021.2.2,120.06563496617713,
0,0,0,0,,,,,177,0,177,0,,,,,,,,,,,,,,,,,,,,,,,,,,,,,,,,,,,,,,,None,0,72.49343420516016,None,tank,none,none,7,red,72.49343420516016,None,72.49343420516016,None,72.49343420516016,72.59349997932259,,,,,,,,,,,,,,,,,,1001,001,2013_Jan_22_1028,FPVS,2021.2.2,120.06563496617713,
0,0,0,0,,,,,178,0,178,0,,,,,,,,,,,,,,,,,,,,,,,,,,,,,,,,,,,,,,,space,0,72.75184304998947,None,rag,none,none,7,red,72.75184304998947,None,72.75184304998947,None,72.75184304998947,72.85185871625436,0.14135830437226105,,,,,,,,,,,,,,,,,1001,001,2013_Jan_22_1028,FPVS,2021.2.2,120.06563496617713,
0,0,0,0,,,,,179,0,179,0,,,,,,,,,,,,,,,,,,,,,,,,,,,,,,,,,,,,,,,None,0,73.00186908496653,None,rope,cond1,cue,1,blue,73.00186908496653,None,73.00186908496653,None,73.00186908496653,73.10187660115116,,,,,,,,,,,,,,,,,,1001,001,2013_Jan_22_1028,FPVS,2021.2.2,120.06563496617713,
0,0,0,0,,,,,180,0,180,0,,,,,,,,,,,,,,,,,,,,,,,,,,,,,,,,,,,,,,,None,0,73.24349419880309,None,honey,none,none,7,blue,73.24349419880309,None,73.24349419880309,None,73.24349419880309,73.34356631191622,,,,,,,,,,,,,,,,,,1001,001,2013_Jan_22_1028,FPVS,2021.2.2,120.06563496617713,
0,0,0,0,,,,,181,0,181,0,,,,,,,,,,,,,,,,,,,,,,,,,,,,,,,,,,,,,,,None,0,73.50193504024173,None,knife,none,none,7,blue,73.50193504024173,None,73.50193504024173,None,73.50193504024173,73.60194466940993,,,,,,,,,,,,,,,,,,1001,001,2013_Jan_22_1028,FPVS,2021.2.2,120.06563496617713,
0,0,0,0,,,,,182,0,182,0,,,,,,,,,,,,,,,,,,,,,,,,,,,,,,,,,,,,,,,None,0,73.74357494496508,None,bandage,none,none,7,blue,73.74357494496508,None,73.74357494496508,None,73.74357494496508,73.84353959776672,,,,,,,,,,,,,,,,,,1001,001,2013_Jan_22_1028,FPVS,2021.2.2,120.06563496617713,
0,0,0,0,,,,,183,0,183,0,,,,,,,,,,,,,,,,,,,,,,,,,,,,,,,,,,,,,,,None,0,73.9936438433233,None,belt,cond1,cue,1,blue,73.9936438433233,None,73.9936438433233,None,73.9936438433233,74.09362026846429,,,,,,,,,,,,,,,,,,1001,001,2013_Jan_22_1028,FPVS,2021.2.2,120.06563496617713,
0,0,0,0,,,,,184,0,184,0,,,,,,,,,,,,,,,,,,,,,,,,,,,,,,,,,,,,,,,None,0,74.24358898121318,None,jar,none,none,7,blue,74.24358898121318,None,74.24358898121318,None,74.24358898121318,74.3436432848921,,,,,,,,,,,,,,,,,,1001,001,2013_Jan_22_1028,FPVS,2021.2.2,120.06563496617713,
0,0,0,0,,,,,185,0,185,0,,,,,,,,,,,,,,,,,,,,,,,,,,,,,,,,,,,,,,,None,0,74.49365667215352,None,neck,none,none,7,blue,74.49365667215352,None,74.49365667215352,None,74.49365667215352,74.59365694382359,,,,,,,,,,,,,,,,,,1001,001,2013_Jan_22_1028,FPVS,2021.2.2,120.06563496617713,
0,0,0,0,,,,,186,0,186,0,,,,,,,,,,,,,,,,,,,,,,,,,,,,,,,,,,,,,,,None,0,74.74369055535499,None,chips,none,none,7,red,74.74369055535499,None,74.74369055535499,None,74.74369055535499,74.84370078823304,,,,,,,,,,,,,,,,,,1001,001,2013_Jan_22_1028,FPVS,2021.2.2,120.06563496617713,
0,0,0,0,,,,,187,0,187,0,,,,,,,,,,,,,,,,,,,,,,,,,,,,,,,,,,,,,,,space,0,74.9936311654219,None,elephant,cond1,cue,1,red,74.9936311654219,None,74.9936311654219,None,74.9936311654219,75.09364894467035,0.10747087629351881,,,,,,,,,,,,,,,,,1001,001,2013_Jan_22_1028,FPVS,2021.2.2,120.06563496617713,
0,0,0,0,,,,,188,0,188,0,,,,,,,,,,,,,,,,,,,,,,,,,,,,,,,,,,,,,,,None,0,75.25206114008688,None,mansion,none,none,7,blue,75.25206114008688,None,75.25206114008688,None,75.25206114008688,75.35206020433725,,,,,,,,,,,,,,,,,,1001,001,2013_Jan_22_1028,FPVS,2021.2.2,120.06563496617713,
0,0,0,0,,,,,189,0,189,0,,,,,,,,,,,,,,,,,,,,,,,,,,,,,,,,,,,,,,,None,0,75.49372670246885,None,hammer,none,none,7,blue,75.49372670246885,None,75.49372670246885,None,75.49372670246885,75.59370041091461,,,,,,,,,,,,,,,,,,1001,001,2013_Jan_22_1028,FPVS,2021.2.2,120.06563496617713,
0,0,0,0,,,,,190,0,190,0,,,,,,,,,,,,,,,,,,,,,,,,,,,,,,,,,,,,,,,None,0,75.74376571720313,None,earth,none,none,7,blue,75.74376571720313,None,75.74376571720313,None,75.74376571720313,75.84378168532203,,,,,,,,,,,,,,,,,,1001,001,2013_Jan_22_1028,FPVS,2021.2.2,120.06563496617713,
0,0,0,0,,,,,191,0,191,0,,,,,,,,,,,,,,,,,,,,,,,,,,,,,,,,,,,,,,,None,0,75.99372534412214,None,menu,cond1,cue,1,blue,75.99372534412214,None,75.99372534412214,None,75.99372534412214,76.0937977590911,,,,,,,,,,,,,,,,,,1001,001,2013_Jan_22_1028,FPVS,2021.2.2,120.06563496617713,
0,0,0,0,,,,,,,,,,,,,,,,,,,,,,,,,,,,,0,0,0,0,,,,,,,,,,,,,,,,,,,,,,,,,,,,,,,76.24381235377041,None,76.24381235377041,None,0.006895390102727106,0.10562756972831266,,,,,,,,,,,1001,001,2013_Jan_22_1028,FPVS,2021.2.2,120.06563496617713,
0,0,0,0,,,,,,,,,,,,,,,,,,,,,,,,,,,,,1,0,1,0,,,,,,,,,,,,,,,,,,,,,,,,,,,,,,,76.48542720454316,None,76.48542720454316,None,0.0055887511971377535,0.10290221322793514,,,,,,,,,,,1001,001,2013_Jan_22_1028,FPVS,2021.2.2,120.06563496617713,
0,0,0,0,,,,,,,,,,,,,,,,,,,,,,,,,,,,,2,0,2,0,,,,,,,,,,,,,,,,,,,,,,,,,,,,,,,76.73551844015856,None,76.73551844015856,None,0.006049079778676969,0.10377940329817648,,,,,,,,,,,1001,001,2013_Jan_22_1028,FPVS,2021.2.2,120.06563496617713,
0,0,0,0,,,,,,,,,,,,,,,,,,,,,,,,,,,,,3,0,3,0,,,,,,,,,,,,,,,,,,,,,,,,,,,,,,,76.98558009400404,None,76.98558009400404,None,0.005740282313126954,0.10326383528808947,,,,,,,,,,,1001,001,2013_Jan_22_1028,FPVS,2021.2.2,120.06563496617713,
0,0,0,0,,,,,,,,,,,,,,,,,,,,,,,,,,,,,4,0,4,0,,,,,,,,,,,,,,,,,,,,,,,,,,,,,,,77.24389083602,None,77.24389083602,None,0.004878486839515972,0.10980623638170073,,,,,,,,,,,1001,001,2013_Jan_22_1028,FPVS,2021.2.2,120.06563496617713,
0,0,0,0,,,,,,,,,,,,,,,,,,,,,,,,,,,,,5,0,5,0,,,,,,,,,,,,,,,,,,,,,,,,,,,,,,,77.49385529261599,None,77.49385529261599,None,0.00544174790775287,0.11101456117285124,,,,,,,,,,,1001,001,2013_Jan_22_1028,FPVS,2021.2.2,120.06563496617713,
0,0,0,0,,,,,,,,,,,,,,,,,,,,,,,,,,,,,6,0,6,0,,,,,,,,,,,,,,,,,,,,,,,,,,,,,,,77.74393415218583,None,77.74393415218583,None,0.004907163043753826,0.10980351968646573,,,,,,,,,,,1001,001,2013_Jan_22_1028,FPVS,2021.2.2,120.06563496617713,
0,0,0,0,,,,,,,,,,,,,,,,,,,,,,,,,,,,,7,0,7,0,,,,,,,,,,,,,,,,,,,,,,,,,,,,,,,77.9939212478912,None,77.9939212478912,None,0.005278142602037406,0.11068885983695509,,,,,,,,,,,1001,001,2013_Jan_22_1028,FPVS,2021.2.2,120.06563496617713,
0,0,0,0,,,,,,,,,,,,,,,,,,,,,,,,,,,,,,,,,,,,,,,,,,,,,,,,,,,,,,,,,,,,,,,,,,,,,78.268910373572,None,space,5.424028729332349,78.268910373572,None,,,,,1001,001,2013_Jan_22_1028,FPVS,2021.2.2,120.06563496617713,
1,0,1,0,0,0,0,0,,,,,,,,,,,,,,,,,,,,,,,,,,,,,,,,,,,,,83.7111201198004,None,83.7111201198004,None,83.7111201198004,83.81105096486317,,,,,,,,,,,,,,,,,,,,,,,,,,,,,,,,,1001,001,2013_Jan_22_1028,FPVS,2021.2.2,120.06563496617713,
1,0,1,0,1,0,1,0,,,,,,,,,,,,,,,,,,,,,,,,,,,,,,,,,,,,,83.96946074544212,None,83.96946074544212,None,83.96946074544212,84.0694827506577,,,,,,,,,,,,,,,,,,,,,,,,,,,,,,,,,1001,001,2013_Jan_22_1028,FPVS,2021.2.2,120.06563496617713,
1,0,1,0,2,0,2,0,,,,,,,,,,,,,,,,,,,,,,,,,,,,,,,,,,,,,84.2111872824953,None,84.2111872824953,None,84.2111872824953,84.31111359973693,,,,,,,,,,,,,,,,,,,,,,,,,,,,,,,,,1001,001,2013_Jan_22_1028,FPVS,2021.2.2,120.06563496617713,
1,0,1,0,3,0,3,0,,,,,,,,,,,,,,,,,,,,,,,,,,,,,,,,,,,,,84.46109589595108,None,84.46109589595108,None,84.46109589595108,84.5611692164839,,,,,,,,,,,,,,,,,,,,,,,,,,,,,,,,,1001,001,2013_Jan_22_1028,FPVS,2021.2.2,120.06563496617713,
1,0,1,0,4,0,4,0,,,,,,,,,,,,,,,,,,,,,,,,,,,,,,,,,,,,,84.71115785165057,None,84.71115785165057,None,84.71115785165057,84.81119917557407,,,,,,,,,,,,,,,,,,,,,,,,,,,,,,,,,1001,001,2013_Jan_22_1028,FPVS,2021.2.2,120.06563496617713,
1,0,1,0,5,0,5,0,,,,,,,,,,,,,,,,,,,,,,,,,,,,,,,,,,,,,84.96123399452699,None,84.96123399452699,None,84.96123399452699,85.06120015660235,,,,,,,,,,,,,,,,,,,,,,,,,,,,,,,,,1001,001,2013_Jan_22_1028,FPVS,2021.2.2,120.06563496617713,
1,0,1,0,6,0,6,0,,,,,,,,,,,,,,,,,,,,,,,,,,,,,,,,,,,,,85.21955832000822,None,85.21955832000822,None,85.21955832000822,85.31957760853038,,,,,,,,,,,,,,,,,,,,,,,,,,,,,,,,,1001,001,2013_Jan_22_1028,FPVS,2021.2.2,120.06563496617713,
1,0,1,0,7,0,7,0,,,,,,,,,,,,,,,,,,,,,,,,,,,,,,,,,,,,,85.46951432466994,None,85.46951432466994,None,85.46951432466994,85.56959096560604,,,,,,,,,,,,,,,,,,,,,,,,,,,,,,,,,1001,001,2013_Jan_22_1028,FPVS,2021.2.2,120.06563496617713,
1,0,1,0,,,,,,,,,,,,,,,,,,,,,,,,,0,0,0,0,,,,,,,,,,,,,,,,,,,None,0,85.71958533601355,None,drawer,none,none,7,blue,85.71958533601355,None,85.71958533601355,None,85.71958533601355,85.81961217090611,,,,,,,,,,,,,,,,,,1001,001,2013_Jan_22_1028,FPVS,2021.2.2,120.06563496617713,
1,0,1,0,,,,,,,,,,,,,,,,,,,,,,,,,1,0,1,0,,,,,,,,,,,,,,,,,,,None,0,85.97796459907113,None,tree,none,none,7,blue,85.97796459907113,None,85.97796459907113,None,85.97796459907113,86.07790299050612,,,,,,,,,,,,,,,,,,1001,001,2013_Jan_22_1028,FPVS,2021.2.2,120.06563496617713,
1,0,1,0,,,,,,,,,,,,,,,,,,,,,,,,,2,0,2,0,,,,,,,,,,,,,,,,,,,None,0,86.22798399324347,None,jar,none,none,7,red,86.22798399324347,None,86.22798399324347,None,86.22798399324347,86.32792962919302,,,,,,,,,,,,,,,,,,1001,001,2013_Jan_22_1028,FPVS,2021.2.2,120.06563496617713,
1,0,1,0,,,,,,,,,,,,,,,,,,,,,,,,,3,0,3,0,,,,,,,,,,,,,,,,,,,space,0,86.47793275339063,None,lamp,cond3,target,6,red,86.47793275339063,None,86.47793275339063,None,86.47793275339063,86.57806342633558,0.14289383977666148,,,,,,,,,,,,,,,,,1001,001,2013_Jan_22_1028,FPVS,2021.2.2,120.06563496617713,
1,0,1,0,,,,,,,,,,,,,,,,,,,,,,,,,4,0,4,0,,,,,,,,,,,,,,,,,,,None,0,86.72803576134356,None,canoe,none,none,7,blue,86.72803576134356,None,86.72803576134356,None,86.72803576134356,86.82796328600307,,,,,,,,,,,,,,,,,,1001,001,2013_Jan_22_1028,FPVS,2021.2.2,120.06563496617713,
1,0,1,0,,,,,,,,,,,,,,,,,,,,,,,,,5,0,5,0,,,,,,,,,,,,,,,,,,,None,0,86.97799780310015,None,soccer,none,none,7,blue,86.97799780310015,None,86.97799780310015,None,86.97799780310015,87.07804335299079,,,,,,,,,,,,,,,,,,1001,001,2013_Jan_22_1028,FPVS,2021.2.2,120.06563496617713,
1,0,1,0,,,,,,,,,,,,,,,,,,,,,,,,,6,0,6,0,,,,,,,,,,,,,,,,,,,None,0,87.2197276605566,None,printer,none,none,7,blue,87.2197276605566,None,87.2197276605566,None,87.2197276605566,87.3196627315865,,,,,,,,,,,,,,,,,,1001,001,2013_Jan_22_1028,FPVS,2021.2.2,120.06563496617713,
1,0,1,0,,,,,,,,,,,,,,,,,,,,,,,,,7,0,7,0,,,,,,,,,,,,,,,,,,,None,0,87.4780921327274,None,acorn,cond3,target,6,blue,87.4780921327274,None,87.4780921327274,None,87.4780921327274,87.57812802326407,,,,,,,,,,,,,,,,,,1001,001,2013_Jan_22_1028,FPVS,2021.2.2,120.06563496617713,
1,0,1,0,,,,,,,,,,,,,,,,,,,,,,,,,8,0,8,0,,,,,,,,,,,,,,,,,,,None,0,87.72810579165889,None,juice,none,none,7,blue,87.72810579165889,None,87.72810579165889,None,87.72810579165889,87.8281157226811,,,,,,,,,,,,,,,,,,1001,001,2013_Jan_22_1028,FPVS,2021.2.2,120.06563496617713,
1,0,1,0,,,,,,,,,,,,,,,,,,,,,,,,,9,0,9,0,,,,,,,,,,,,,,,,,,,None,0,87.97813846744066,None,oil,none,none,7,blue,87.97813846744066,None,87.97813846744066,None,87.97813846744066,88.07813028717646,,,,,,,,,,,,,,,,,,1001,001,2013_Jan_22_1028,FPVS,2021.2.2,120.06563496617713,
1,0,1,0,,,,,,,,,,,,,,,,,,,,,,,,,10,0,10,0,,,,,,,,,,,,,,,,,,,None,0,88.22814940967692,None,brick,none,none,7,blue,88.22814940967692,None,88.22814940967692,None,88.22814940967692,88.32815662400753,,,,,,,,,,,,,,,,,,1001,001,2013_Jan_22_1028,FPVS,2021.2.2,120.06563496617713,
1,0,1,0,,,,,,,,,,,,,,,,,,,,,,,,,11,0,11,0,,,,,,,,,,,,,,,,,,,None,0,88.47817544465397,None,fog,cond3,target,6,blue,88.47817544465397,None,88.47817544465397,None,88.47817544465397,88.57819231833855,,,,,,,,,,,,,,,,,,1001,001,2013_Jan_22_1028,FPVS,2021.2.2,120.06563496617713,
1,0,1,0,,,,,,,,,,,,,,,,,,,,,,,,,12,0,12,0,,,,,,,,,,,,,,,,,,,None,0,88.72818789616576,None,medicine,none,none,7,blue,88.72818789616576,None,88.72818789616576,None,88.72818789616576,88.82818364001287,,,,,,,,,,,,,,,,,,1001,001,2013_Jan_22_1028,FPVS,2021.2.2,120.06563496617713,
1,0,1,0,,,,,,,,,,,,,,,,,,,,,,,,,13,0,13,0,,,,,,,,,,,,,,,,,,,None,0,88.97815023977819,None,student,none,none,7,blue,88.97815023977819,None,88.97815023977819,None,88.97815023977819,89.07822235289132,,,,,,,,,,,,,,,,,,1001,001,2013_Jan_22_1028,FPVS,2021.2.2,120.06563496617713,
1,0,1,0,,,,,,,,,,,,,,,,,,,,,,,,,14,0,14,0,,,,,,,,,,,,,,,,,,,None,0,89.22821340289738,None,onion,none,none,7,red,89.22821340289738,None,89.22821340289738,None,89.22821340289738,89.32815571844367,,,,,,,,,,,,,,,,,,1001,001,2013_Jan_22_1028,FPVS,2021.2.2,120.06563496617713,
1,0,1,0,,,,,,,,,,,,,,,,,,,,,,,,,15,0,15,0,,,,,,,,,,,,,,,,,,,space,0,89.46990613220987,None,chimney,cond3,target,6,red,89.46990613220987,None,89.46990613220987,None,89.46990613220987,89.56992632629772,0.1428150556712353,,,,,,,,,,,,,,,,,1001,001,2013_Jan_22_1028,FPVS,2021.2.2,120.06563496617713,
1,0,1,0,,,,,,,,,,,,,,,,,,,,,,,,,16,0,16,0,,,,,,,,,,,,,,,,,,,None,0,89.7199203948494,None,pipe,none,none,7,blue,89.7199203948494,None,89.7199203948494,None,89.7199203948494,89.81994662603392,,,,,,,,,,,,,,,,,,1001,001,2013_Jan_22_1028,FPVS,2021.2.2,120.06563496617713,
1,0,1,0,,,,,,,,,,,,,,,,,,,,,,,,,17,0,17,0,,,,,,,,,,,,,,,,,,,None,0,89.96995125950343,None,spoon,none,none,7,blue,89.96995125950343,None,89.96995125950343,None,89.96995125950343,90.06989176392199,,,,,,,,,,,,,,,,,,1001,001,2013_Jan_22_1028,FPVS,2021.2.2,120.06563496617713,
1,0,1,0,,,,,,,,,,,,,,,,,,,,,,,,,18,0,18,0,,,,,,,,,,,,,,,,,,,None,0,90.21990424561773,None,bath,none,none,7,red,90.21990424561773,None,90.21990424561773,None,90.21990424561773,90.31993349534969,,,,,,,,,,,,,,,,,,1001,001,2013_Jan_22_1028,FPVS,2021.2.2,120.06563496617713,
1,0,1,0,,,,,,,,,,,,,,,,,,,,,,,,,19,0,19,0,,,,,,,,,,,,,,,,,,,space,0,90.46999668865283,None,map,cond3,target,6,red,90.46999668865283,None,90.46999668865283,None,90.46999668865283,90.57002865507638,0.1827024517551763,,,,,,,,,,,,,,,,,1001,001,2013_Jan_22_1028,FPVS,2021.2.2,120.06563496617713,
1,0,1,0,,,,,,,,,,,,,,,,,,,,,,,,,20,0,20,0,,,,,,,,,,,,,,,,,,,None,0,90.72000702717924,None,collar,none,none,7,blue,90.72000702717924,None,90.72000702717924,None,90.72000702717924,90.82003778618491,,,,,,,,,,,,,,,,,,1001,001,2013_Jan_22_1028,FPVS,2021.2.2,120.06563496617713,
1,0,1,0,,,,,,,,,,,,,,,,,,,,,,,,,21,0,21,0,,,,,,,,,,,,,,,,,,,None,0,90.97004694747739,None,pond,none,none,7,blue,90.97004694747739,None,90.97004694747739,None,90.97004694747739,91.07004118205077,,,,,,,,,,,,,,,,,,1001,001,2013_Jan_22_1028,FPVS,2021.2.2,120.06563496617713,
1,0,1,0,,,,,,,,,,,,,,,,,,,,,,,,,22,0,22,0,,,,,,,,,,,,,,,,,,,None,0,91.21998574641657,None,envelope,none,none,7,blue,91.21998574641657,None,91.21998574641657,None,91.21998574641657,91.32001046832556,,,,,,,,,,,,,,,,,,1001,001,2013_Jan_22_1028,FPVS,2021.2.2,120.06563496617713,
1,0,1,0,,,,,,,,,,,,,,,,,,,,,,,,,23,0,23,0,,,,,,,,,,,,,,,,,,,None,0,91.4700229500213,None,moon,cond3,target,6,blue,91.4700229500213,None,91.4700229500213,None,91.4700229500213,91.57011045772924,,,,,,,,,,,,,,,,,,1001,001,2013_Jan_22_1028,FPVS,2021.2.2,120.06563496617713,
1,0,1,0,,,,,,,,,,,,,,,,,,,,,,,,,24,0,24,0,,,,,,,,,,,,,,,,,,,None,0,91.72002604403315,None,valley,none,none,7,blue,91.72002604403315,None,91.72002604403315,None,91.72002604403315,91.82004231400606,,,,,,,,,,,,,,,,,,1001,001,2013_Jan_22_1028,FPVS,2021.2.2,120.06563496617713,
1,0,1,0,,,,,,,,,,,,,,,,,,,,,,,,,25,0,25,0,,,,,,,,,,,,,,,,,,,None,0,91.97011818521241,None,camera,none,none,7,blue,91.97011818521241,None,91.97011818521241,None,91.97011818521241,92.07007408422578,,,,,,,,,,,,,,,,,,1001,001,2013_Jan_22_1028,FPVS,2021.2.2,120.06563496617713,
1,0,1,0,,,,,,,,,,,,,,,,,,,,,,,,,26,0,26,0,,,,,,,,,,,,,,,,,,,None,0,92.22015297397957,None,burger,none,none,7,blue,92.22015297397957,None,92.22015297397957,None,92.22015297397957,92.32008321533249,,,,,,,,,,,,,,,,,,1001,001,2013_Jan_22_1028,FPVS,2021.2.2,120.06563496617713,
1,0,1,0,,,,,,,,,,,,,,,,,,,,,,,,,27,0,27,0,,,,,,,,,,,,,,,,,,,None,0,92.47011471388214,None,cave,cond3,target,6,blue,92.47011471388214,None,92.47011471388214,None,92.47011471388214,92.57016267861218,,,,,,,,,,,,,,,,,,1001,001,2013_Jan_22_1028,FPVS,2021.2.2,120.06563496617713,
1,0,1,0,,,,,,,,,,,,,,,,,,,,,,,,,28,0,28,0,,,,,,,,,,,,,,,,,,,None,0,92.72016036942114,None,saucer,none,none,7,blue,92.72016036942114,None,92.72016036942114,None,92.72016036942114,92.82016758375175,,,,,,,,,,,,,,,,,,1001,001,2013_Jan_22_1028,FPVS,2021.2.2,120.06563496617713,
1,0,1,0,,,,,,,,,,,,,,,,,,,,,,,,,29,0,29,0,,,,,,,,,,,,,,,,,,,None,0,92.97020119528497,None,fork,none,none,7,blue,92.97020119528497,None,92.97020119528497,None,92.97020119528497,93.07021535227432,,,,,,,,,,,,,,,,,,1001,001,2013_Jan_22_1028,FPVS,2021.2.2,120.06563496617713,
1,0,1,0,,,,,,,,,,,,,,,,,,,,,,,,,30,0,30,0,,,,,,,,,,,,,,,,,,,None,0,93.22021998574564,None,truck,none,none,7,blue,93.22021998574564,None,93.22021998574564,None,93.22021998574564,93.32023202975324,,,,,,,,,,,,,,,,,,1001,001,2013_Jan_22_1028,FPVS,2021.2.2,120.06563496617713,
1,0,1,0,,,,,,,,,,,,,,,,,,,,,,,,,31,0,31,0,,,,,,,,,,,,,,,,,,,None,0,93.47016784032894,None,fog,cond3,target,6,blue,93.47016784032894,None,93.47016784032894,None,93.47016784032894,93.57025595174673,,,,,,,,,,,,,,,,,,1001,001,2013_Jan_22_1028,FPVS,2021.2.2,120.06563496617713,
1,0,1,0,,,,,,,,,,,,,,,,,,,,,,,,,32,0,32,0,,,,,,,,,,,,,,,,,,,None,0,93.72026541489504,None,stamp,none,none,7,red,93.72026541489504,None,93.72026541489504,None,93.72026541489504,93.82030704067256,,,,,,,,,,,,,,,,,,1001,001,2013_Jan_22_1028,FPVS,2021.2.2,120.06563496617713,
1,0,1,0,,,,,,,,,,,,,,,,,,,,,,,,,33,0,33,0,,,,,,,,,,,,,,,,,,,space,0,93.97856136602604,None,jet,none,none,7,red,93.97856136602604,None,93.97856136602604,None,93.97856136602604,94.07863981808987,0.11410805979539873,,,,,,,,,,,,,,,,,1001,001,2013_Jan_22_1028,FPVS,2021.2.2,120.06563496617713,
1,0,1,0,,,,,,,,,,,,,,,,,,,,,,,,,34,0,34,0,,,,,,,,,,,,,,,,,,,None,0,94.22028639380369,None,blade,none,none,7,blue,94.22028639380369,None,94.22028639380369,None,94.22028639380369,94.3203265103075,,,,,,,,,,,,,,,,,,1001,001,2013_Jan_22_1028,FPVS,2021.2.2,120.06563496617713,
1,0,1,0,,,,,,,,,,,,,,,,,,,,,,,,,35,0,35,0,,,,,,,,,,,,,,,,,,,None,0,94.4703284270854,None,orchard,cond3,target,6,blue,94.4703284270854,None,94.4703284270854,None,94.4703284270854,94.57037156213846,,,,,,,,,,,,,,,,,,1001,001,2013_Jan_22_1028,FPVS,2021.2.2,120.06563496617713,
1,0,1,0,,,,,,,,,,,,,,,,,,,,,,,,,36,0,36,0,,,,,,,,,,,,,,,,,,,None,0,94.72034450085448,None,ham,none,none,7,blue,94.72034450085448,None,94.72034450085448,None,94.72034450085448,94.82036801534377,,,,,,,,,,,,,,,,,,1001,001,2013_Jan_22_1028,FPVS,2021.2.2,120.06563496617713,
1,0,1,0,,,,,,,,,,,,,,,,,,,,,,,,,37,0,37,0,,,,,,,,,,,,,,,,,,,None,0,94.97864799835588,None,paint,none,none,7,blue,94.97864799835588,None,94.97864799835588,None,94.97864799835588,95.07872222445258,,,,,,,,,,,,,,,,,,1001,001,2013_Jan_22_1028,FPVS,2021.2.2,120.06563496617713,
1,0,1,0,,,,,,,,,,,,,,,,,,,,,,,,,38,0,38,0,,,,,,,,,,,,,,,,,,,None,0,95.22876428792006,None,diamond,none,none,7,blue,95.22876428792006,None,95.22876428792006,None,95.22876428792006,95.32869301999926,,,,,,,,,,,,,,,,,,1001,001,2013_Jan_22_1028,FPVS,2021.2.2,120.06563496617713,
1,0,1,0,,,,,,,,,,,,,,,,,,,,,,,,,39,0,39,0,,,,,,,,,,,,,,,,,,,None,0,95.47869372935929,None,acorn,cond3,target,6,blue,95.47869372935929,None,95.47869372935929,None,95.47869372935929,95.57878063335738,,,,,,,,,,,,,,,,,,1001,001,2013_Jan_22_1028,FPVS,2021.2.2,120.06563496617713,
1,0,1,0,,,,,,,,,,,,,,,,,,,,,,,,,40,0,40,0,,,,,,,,,,,,,,,,,,,None,0,95.72872640514106,None,monkey,none,none,7,red,95.72872640514106,None,95.72872640514106,None,95.72872640514106,95.82879459414289,,,,,,,,,,,,,,,,,,1001,001,2013_Jan_22_1028,FPVS,2021.2.2,120.06563496617713,
1,0,1,0,,,,,,,,,,,,,,,,,,,,,,,,,41,0,41,0,,,,,,,,,,,,,,,,,,,space,0,95.97880073688793,None,baton,none,none,7,red,95.97880073688793,None,95.97880073688793,None,95.97880073688793,96.0787934621876,0.08175797824878828,,,,,,,,,,,,,,,,,1001,001,2013_Jan_22_1028,FPVS,2021.2.2,120.06563496617713,
1,0,1,0,,,,,,,,,,,,,,,,,,,,,,,,,42,0,42,0,,,,,,,,,,,,,,,,,,,None,0,96.22882616815514,None,cable,none,none,7,blue,96.22882616815514,None,96.22882616815514,None,96.22882616815514,96.32882311942194,,,,,,,,,,,,,,,,,,1001,001,2013_Jan_22_1028,FPVS,2021.2.2,120.06563496617713,
1,0,1,0,,,,,,,,,,,,,,,,,,,,,,,,,43,0,43,0,,,,,,,,,,,,,,,,,,,None,0,96.47880692491162,None,computer,cond3,target,6,blue,96.47880692491162,None,96.47880692491162,None,96.47880692491162,96.57886273786607,,,,,,,,,,,,,,,,,,1001,001,2013_Jan_22_1028,FPVS,2021.2.2,120.06563496617713,
1,0,1,0,,,,,,,,,,,,,,,,,,,,,,,,,44,0,44,0,,,,,,,,,,,,,,,,,,,None,0,96.72886556020785,None,scissors,none,none,7,blue,96.72886556020785,None,96.72886556020785,None,96.72886556020785,96.82888756542343,,,,,,,,,,,,,,,,,,1001,001,2013_Jan_22_1028,FPVS,2021.2.2,120.06563496617713,
1,0,1,0,,,,,,,,,,,,,,,,,,,,,,,,,45,0,45,0,,,,,,,,,,,,,,,,,,,None,0,96.97051753912274,None,concrete,none,none,7,blue,96.97051753912274,None,96.97051753912274,None,96.97051753912274,97.07056308901338,,,,,,,,,,,,,,,,,,1001,001,2013_Jan_22_1028,FPVS,2021.2.2,120.06563496617713,
1,0,1,0,,,,,,,,,,,,,,,,,,,,,,,,,46,0,46,0,,,,,,,,,,,,,,,,,,,None,0,97.22890525411458,None,hat,none,none,7,blue,97.22890525411458,None,97.22890525411458,None,97.22890525411458,97.32891216658936,,,,,,,,,,,,,,,,,,1001,001,2013_Jan_22_1028,FPVS,2021.2.2,120.06563496617713,
1,0,1,0,,,,,,,,,,,,,,,,,,,,,,,,,47,0,47,0,,,,,,,,,,,,,,,,,,,None,0,97.47887786079082,None,panda,cond3,target,6,blue,97.47887786079082,None,97.47887786079082,None,97.47887786079082,97.57888688624917,,,,,,,,,,,,,,,,,,1001,001,2013_Jan_22_1028,FPVS,2021.2.2,120.06563496617713,
1,0,1,0,,,,,,,,,,,,,,,,,,,,,,,,,48,0,48,0,,,,,,,,,,,,,,,,,,,None,0,97.72061345348811,None,soda,none,none,7,red,97.72061345348811,None,97.72061345348811,None,97.72061345348811,97.82061946039903,,,,,,,,,,,,,,,,,,1001,001,2013_Jan_22_1028,FPVS,2021.2.2,120.06563496617713,
1,0,1,0,,,,,,,,,,,,,,,,,,,,,,,,,49,0,49,0,,,,,,,,,,,,,,,,,,,space,0,97.97896977558048,None,knife,none,none,7,red,97.97896977558048,None,97.97896977558048,None,97.97896977558048,98.07898936595666,0.11362720508805069,,,,,,,,,,,,,,,,,1001,001,2013_Jan_22_1028,FPVS,2021.2.2,120.06563496617713,
1,0,1,0,,,,,,,,,,,,,,,,,,,,,,,,,50,0,50,0,,,,,,,,,,,,,,,,,,,None,0,98.22892910064547,None,helmet,none,none,7,blue,98.22892910064547,None,98.22892910064547,None,98.22892910064547,98.32900574157975,,,,,,,,,,,,,,,,,,1001,001,2013_Jan_22_1028,FPVS,2021.2.2,120.06563496617713,
1,0,1,0,,,,,,,,,,,,,,,,,,,,,,,,,51,0,51,0,,,,,,,,,,,,,,,,,,,None,0,98.47893943917188,None,coconut,cond3,target,6,blue,98.47893943917188,None,98.47893943917188,None,98.47893943917188,98.57898046123955,,,,,,,,,,,,,,,,,,1001,001,2013_Jan_22_1028,FPVS,2021.2.2,120.06563496617713,
1,0,1,0,,,,,,,,,,,,,,,,,,,,,,,,,52,0,52,0,,,,,,,,,,,,,,,,,,,None,0,98.7290409378511,None,radio,none,none,7,blue,98.7290409378511,None,98.7290409378511,None,98.7290409378511,98.8290064962166,,,,,,,,,,,,,,,,,,1001,001,2013_Jan_22_1028,FPVS,2021.2.2,120.06563496617713,
1,0,1,0,,,,,,,,,,,,,,,,,,,,,,,,,53,0,53,0,,,,,,,,,,,,,,,,,,,None,0,98.97899845178654,None,pizza,none,none,7,blue,98.97899845178654,None,98.97899845178654,None,98.97899845178654,99.079054566595,,,,,,,,,,,,,,,,,,1001,001,2013_Jan_22_1028,FPVS,2021.2.2,120.06563496617713,
1,0,1,0,,,,,,,,,,,,,,,,,,,,,,,,,54,0,54,0,,,,,,,,,,,,,,,,,,,None,0,99.22070627384164,None,pony,none,none,7,blue,99.22070627384164,None,99.22070627384164,None,99.22070627384164,99.32069477317236,,,,,,,,,,,,,,,,,,1001,001,2013_Jan_22_1028,FPVS,2021.2.2,120.06563496617713,
1,0,1,0,,,,,,,,,,,,,,,,,,,,,,,,,55,0,55,0,,,,,,,,,,,,,,,,,,,None,0,99.47909519625318,None,storm,cond3,target,6,blue,99.47909519625318,None,99.47909519625318,None,99.47909519625318,99.57909667534113,,,,,,,,,,,,,,,,,,1001,001,2013_Jan_22_1028,FPVS,2021.2.2,120.06563496617713,
1,0,1,0,,,,,,,,,,,,,,,,,,,,,,,,,56,0,56,0,,,,,,,,,,,,,,,,,,,None,0,99.72910915703687,None,mansion,none,none,7,red,99.72910915703687,None,99.72910915703687,None,99.72910915703687,99.82912723814115,,,,,,,,,,,,,,,,,,1001,001,2013_Jan_22_1028,FPVS,2021.2.2,120.06563496617713,
1,0,1,0,,,,,,,,,,,,,,,,,,,,,,,,,57,0,57,0,,,,,,,,,,,,,,,,,,,space,0,99.97913549386976,None,statue,none,none,7,red,99.97913549386976,None,99.97913549386976,None,99.97913549386976,100.07908897804373,0.09736145694478182,,,,,,,,,,,,,,,,,1001,001,2013_Jan_22_1028,FPVS,2021.2.2,120.06563496617713,
1,0,1,0,,,,,,,,,,,,,,,,,,,,,,,,,58,0,58,0,,,,,,,,,,,,,,,,,,,None,0,100.22909481893475,None,soap,none,none,7,red,100.22909481893475,None,100.22909481893475,None,100.22909481893475,100.329132822455,,,,,,,,,,,,,,,,,,1001,001,2013_Jan_22_1028,FPVS,2021.2.2,120.06563496617713,
1,0,1,0,,,,,,,,,,,,,,,,,,,,,,,,,59,0,59,0,,,,,,,,,,,,,,,,,,,None,0,100.47916100059956,None,toilet,cond3,target,6,red,100.47916100059956,None,100.47916100059956,None,100.47916100059956,100.57911086251625,,,,,,,,,,,,,,,,,,1001,001,2013_Jan_22_1028,FPVS,2021.2.2,120.06563496617713,
1,0,1,0,,,,,,,,,,,,,,,,,,,,,,,,,60,0,60,0,,,,,,,,,,,,,,,,,,,None,0,100.72913209800208,None,rice,none,none,7,blue,100.72913209800208,None,100.72913209800208,None,100.72913209800208,100.82918942023025,,,,,,,,,,,,,,,,,,1001,001,2013_Jan_22_1028,FPVS,2021.2.2,120.06563496617713,
1,0,1,0,,,,,,,,,,,,,,,,,,,,,,,,,61,0,61,0,,,,,,,,,,,,,,,,,,,None,0,100.97914907733502,None,cow,none,none,7,blue,100.97914907733502,None,100.97914907733502,None,100.97914907733502,101.07926194084757,,,,,,,,,,,,,,,,,,1001,001,2013_Jan_22_1028,FPVS,2021.2.2,120.06563496617713,
1,0,1,0,,,,,,,,,,,,,,,,,,,,,,,,,62,0,62,0,,,,,,,,,,,,,,,,,,,None,0,101.2209402113167,None,mug,none,none,7,blue,101.2209402113167,None,101.2209402113167,None,101.2209402113167,101.3208991288775,,,,,,,,,,,,,,,,,,1001,001,2013_Jan_22_1028,FPVS,2021.2.2,120.06563496617713,
1,0,1,0,,,,,,,,,,,,,,,,,,,,,,,,,63,0,63,0,,,,,,,,,,,,,,,,,,,None,0,101.47087357686723,None,flag,cond3,target,6,blue,101.47087357686723,None,101.47087357686723,None,101.47087357686723,101.57083792781486,,,,,,,,,,,,,,,,,,1001,001,2013_Jan_22_1028,FPVS,2021.2.2,120.06563496617713,
1,0,1,0,,,,,,,,,,,,,,,,,,,,,,,,,64,0,64,0,,,,,,,,,,,,,,,,,,,None,0,101.72921993775162,None,spider,none,none,7,blue,101.72921993775162,None,101.72921993775162,None,101.72921993775162,101.82933400868387,,,,,,,,,,,,,,,,,,1001,001,2013_Jan_22_1028,FPVS,2021.2.2,120.06563496617713,
1,0,1,0,,,,,,,,,,,,,,,,,,,,,,,,,65,0,65,0,,,,,,,,,,,,,,,,,,,None,0,101.97098903633196,None,portrait,none,none,7,red,101.97098903633196,None,101.97098903633196,None,101.97098903633196,102.0709814597758,,,,,,,,,,,,,,,,,,1001,001,2013_Jan_22_1028,FPVS,2021.2.2,120.06563496617713,
1,0,1,0,,,,,,,,,,,,,,,,,,,,,,,,,66,0,66,0,,,,,,,,,,,,,,,,,,,space,0,102.22097552832929,None,straw,none,none,7,red,102.22097552832929,None,102.22097552832929,None,102.22097552832929,102.32099904281858,0.1274539663882024,,,,,,,,,,,,,,,,,1001,001,2013_Jan_22_1028,FPVS,2021.2.2,120.06563496617713,
1,0,1,0,,,,,,,,,,,,,,,,,,,,,,,,,67,0,67,0,,,,,,,,,,,,,,,,,,,None,0,102.4792714794603,None,lamp,cond3,target,6,blue,102.4792714794603,None,102.4792714794603,None,102.4792714794603,102.57928563644964,,,,,,,,,,,,,,,,,,1001,001,2013_Jan_22_1028,FPVS,2021.2.2,120.06563496617713,
1,0,1,0,,,,,,,,,,,,,,,,,,,,,,,,,68,0,68,0,,,,,,,,,,,,,,,,,,,None,0,102.72100465731819,None,shampoo,none,none,7,blue,102.72100465731819,None,102.72100465731819,None,102.72100465731819,102.82099255294088,,,,,,,,,,,,,,,,,,1001,001,2013_Jan_22_1028,FPVS,2021.2.2,120.06563496617713,
1,0,1,0,,,,,,,,,,,,,,,,,,,,,,,,,69,0,69,0,,,,,,,,,,,,,,,,,,,None,0,102.97105484068015,None,vault,none,none,7,blue,102.97105484068015,None,102.97105484068015,None,102.97105484068015,103.0710714125089,,,,,,,,,,,,,,,,,,1001,001,2013_Jan_22_1028,FPVS,2021.2.2,120.06563496617713,
1,0,1,0,,,,,,,,,,,,,,,,,,,,,,,,,70,0,70,0,,,,,,,,,,,,,,,,,,,None,0,103.22101476945318,None,tank,none,none,7,blue,103.22101476945318,None,103.22101476945318,None,103.22101476945318,103.32108024176159,,,,,,,,,,,,,,,,,,1001,001,2013_Jan_22_1028,FPVS,2021.2.2,120.06563496617713,
1,0,1,0,,,,,,,,,,,,,,,,,,,,,,,,,71,0,71,0,,,,,,,,,,,,,,,,,,,None,0,103.47110026982773,None,moon,cond3,target,6,blue,103.47110026982773,None,103.47110026982773,None,103.47110026982773,103.57108937287012,,,,,,,,,,,,,,,,,,1001,001,2013_Jan_22_1028,FPVS,2021.2.2,120.06563496617713,
1,0,1,0,,,,,,,,,,,,,,,,,,,,,,,,,72,0,72,0,,,,,,,,,,,,,,,,,,,None,0,103.72110426940344,None,camel,none,none,7,blue,103.72110426940344,None,103.72110426940344,None,103.72110426940344,103.82113321727957,,,,,,,,,,,,,,,,,,1001,001,2013_Jan_22_1028,FPVS,2021.2.2,120.06563496617713,
1,0,1,0,,,,,,,,,,,,,,,,,,,,,,,,,73,0,73,0,,,,,,,,,,,,,,,,,,,None,0,103.97940172980998,None,cheek,none,none,7,blue,103.97940172980998,None,103.97940172980998,None,103.97940172980998,104.07946599469687,,,,,,,,,,,,,,,,,,1001,001,2013_Jan_22_1028,FPVS,2021.2.2,120.06563496617713,
1,0,1,0,,,,,,,,,,,,,,,,,,,,,,,,,74,0,74,0,,,,,,,,,,,,,,,,,,,None,0,104.22949628582683,None,pancake,none,none,7,red,104.22949628582683,None,104.22949628582683,None,104.22949628582683,104.32949806677061,,,,,,,,,,,,,,,,,,1001,001,2013_Jan_22_1028,FPVS,2021.2.2,120.06563496617713,
1,0,1,0,,,,,,,,,,,,,,,,,,,,,,,,,75,0,75,0,,,,,,,,,,,,,,,,,,,space,0,104.47951175588605,None,storm,cond3,target,6,red,104.47951175588605,None,104.47951175588605,None,104.47951175588605,104.57950478303974,0.12486827810789691,,,,,,,,,,,,,,,,,1001,001,2013_Jan_22_1028,FPVS,2021.2.2,120.06563496617713,
1,0,1,0,,,,,,,,,,,,,,,,,,,,,,,,,76,0,76,0,,,,,,,,,,,,,,,,,,,None,0,104.72947621248204,None,wagon,none,none,7,blue,104.72947621248204,None,104.72947621248204,None,104.72947621248204,104.8295637201918,,,,,,,,,,,,,,,,,,1001,001,2013_Jan_22_1028,FPVS,2021.2.2,120.06563496617713,
1,0,1,0,,,,,,,,,,,,,,,,,,,,,,,,,77,0,77,0,,,,,,,,,,,,,,,,,,,None,0,104.97956684438941,None,broom,none,none,7,blue,104.97956684438941,None,104.97956684438941,None,104.97956684438941,105.07955624928582,,,,,,,,,,,,,,,,,,1001,001,2013_Jan_22_1028,FPVS,2021.2.2,120.06563496617713,
1,0,1,0,,,,,,,,,,,,,,,,,,,,,,,,,78,0,78,0,,,,,,,,,,,,,,,,,,,None,0,105.22952224534129,None,gown,none,none,7,blue,105.22952224534129,None,105.22952224534129,None,105.22952224534129,105.32958651023,,,,,,,,,,,,,,,,,,1001,001,2013_Jan_22_1028,FPVS,2021.2.2,120.06563496617713,
1,0,1,0,,,,,,,,,,,,,,,,,,,,,,,,,79,0,79,0,,,,,,,,,,,,,,,,,,,None,0,105.47128349569539,None,beaver,cond3,target,6,blue,105.47128349569539,None,105.47128349569539,None,105.47128349569539,105.57126988204436,,,,,,,,,,,,,,,,,,1001,001,2013_Jan_22_1028,FPVS,2021.2.2,120.06563496617713,
1,0,1,0,,,,,,,,,,,,,,,,,,,,,,,,,80,0,80,0,,,,,,,,,,,,,,,,,,,None,0,105.72962200835536,None,worm,none,none,7,blue,105.72962200835536,None,105.72962200835536,None,105.72962200835536,105.82957941664063,,,,,,,,,,,,,,,,,,1001,001,2013_Jan_22_1028,FPVS,2021.2.2,120.06563496617713,
1,0,1,0,,,,,,,,,,,,,,,,,,,,,,,,,81,0,81,0,,,,,,,,,,,,,,,,,,,None,0,105.97965106187985,None,honey,none,none,7,blue,105.97965106187985,None,105.97965106187985,None,105.97965106187985,106.07963925935655,,,,,,,,,,,,,,,,,,1001,001,2013_Jan_22_1028,FPVS,2021.2.2,120.06563496617713,
1,0,1,0,,,,,,,,,,,,,,,,,,,,,,,,,82,0,82,0,,,,,,,,,,,,,,,,,,,None,0,106.22965355218184,None,temple,none,none,7,blue,106.22965355218184,None,106.22965355218184,None,106.22965355218184,106.3296649924796,,,,,,,,,,,,,,,,,,1001,001,2013_Jan_22_1028,FPVS,2021.2.2,120.06563496617713,
1,0,1,0,,,,,,,,,,,,,,,,,,,,,,,,,83,0,83,0,,,,,,,,,,,,,,,,,,,None,0,106.47134930004358,None,duck,cond3,target,6,blue,106.47134930004358,None,106.47134930004358,None,106.47134930004358,106.57125780785282,,,,,,,,,,,,,,,,,,1001,001,2013_Jan_22_1028,FPVS,2021.2.2,120.06563496617713,
1,0,1,0,,,,,,,,,,,,,,,,,,,,,,,,,84,0,84,0,,,,,,,,,,,,,,,,,,,None,0,106.72964947714172,None,alley,none,none,7,blue,106.72964947714172,None,106.72964947714172,None,106.72964947714172,106.82962982639401,,,,,,,,,,,,,,,,,,1001,001,2013_Jan_22_1028,FPVS,2021.2.2,120.06563496617713,
1,0,1,0,,,,,,,,,,,,,,,,,,,,,,,,,85,0,85,0,,,,,,,,,,,,,,,,,,,None,0,106.9797213940492,None,chicken,none,none,7,blue,106.9797213940492,None,106.9797213940492,None,106.9797213940492,107.07972891023564,,,,,,,,,,,,,,,,,,1001,001,2013_Jan_22_1028,FPVS,2021.2.2,120.06563496617713,
1,0,1,0,,,,,,,,,,,,,,,,,,,,,,,,,86,0,86,0,,,,,,,,,,,,,,,,,,,None,0,107.22974018451168,None,hamster,none,none,7,blue,107.22974018451168,None,107.22974018451168,None,107.22974018451168,107.32967887780069,,,,,,,,,,,,,,,,,,1001,001,2013_Jan_22_1028,FPVS,2021.2.2,120.06563496617713,
1,0,1,0,,,,,,,,,,,,,,,,,,,,,,,,,87,0,87,0,,,,,,,,,,,,,,,,,,,None,0,107.47976259723146,None,chimney,cond3,target,6,blue,107.47976259723146,None,107.47976259723146,None,107.47976259723146,107.57975652994901,,,,,,,,,,,,,,,,,,1001,001,2013_Jan_22_1028,FPVS,2021.2.2,120.06563496617713,
1,0,1,0,,,,,,,,,,,,,,,,,,,,,,,,,88,0,88,0,,,,,,,,,,,,,,,,,,,None,0,107.72138982405158,None,apron,none,none,7,red,107.72138982405158,None,107.72138982405158,None,107.72138982405158,107.8214616353107,,,,,,,,,,,,,,,,,,1001,001,2013_Jan_22_1028,FPVS,2021.2.2,120.06563496617713,
1,0,1,0,,,,,,,,,,,,,,,,,,,,,,,,,89,0,89,0,,,,,,,,,,,,,,,,,,,space,0,107.97145691128208,None,waitress,none,none,7,red,107.97145691128208,None,107.97145691128208,None,107.97145691128208,108.07147287940279,0.10482693003723398,,,,,,,,,,,,,,,,,1001,001,2013_Jan_22_1028,FPVS,2021.2.2,120.06563496617713,
1,0,1,0,,,,,,,,,,,,,,,,,,,,,,,,,90,0,90,0,,,,,,,,,,,,,,,,,,,None,0,108.22150347238676,None,mule,none,none,7,blue,108.22150347238676,None,108.22150347238676,None,108.22150347238676,108.32144941019033,,,,,,,,,,,,,,,,,,1001,001,2013_Jan_22_1028,FPVS,2021.2.2,120.06563496617713,
1,0,1,0,,,,,,,,,,,,,,,,,,,,,,,,,91,0,91,0,,,,,,,,,,,,,,,,,,,None,0,108.47976138981176,None,lamp,cond3,target,6,blue,108.47976138981176,None,108.47976138981176,None,108.47976138981176,108.57985342534266,,,,,,,,,,,,,,,,,,1001,001,2013_Jan_22_1028,FPVS,2021.2.2,120.06563496617713,
1,0,1,0,,,,,,,,,,,,,,,,,,,,,,,,,92,0,92,0,,,,,,,,,,,,,,,,,,,None,0,108.72986802002197,None,clay,none,none,7,red,108.72986802002197,None,108.72986802002197,None,108.72986802002197,108.8298462562907,,,,,,,,,,,,,,,,,,1001,001,2013_Jan_22_1028,FPVS,2021.2.2,120.06563496617713,
1,0,1,0,,,,,,,,,,,,,,,,,,,,,,,,,93,0,93,0,,,,,,,,,,,,,,,,,,,space,0,108.97158701070475,None,stadium,none,none,7,red,108.97158701070475,None,108.97158701070475,None,108.97158701070475,109.07157249148804,0.17663184972843737,,,,,,,,,,,,,,,,,1001,001,2013_Jan_22_1028,FPVS,2021.2.2,120.06563496617713,
1,0,1,0,,,,,,,,,,,,,,,,,,,,,,,,,94,0,94,0,,,,,,,,,,,,,,,,,,,None,0,109.22152279109469,None,bouquet,none,none,7,blue,109.22152279109469,None,109.22152279109469,None,109.22152279109469,109.3215656242919,,,,,,,,,,,,,,,,,,1001,001,2013_Jan_22_1028,FPVS,2021.2.2,120.06563496617713,
1,0,1,0,,,,,,,,,,,,,,,,,,,,,,,,,95,0,95,0,,,,,,,,,,,,,,,,,,,None,0,109.471600443243,None,computer,cond3,target,6,blue,109.471600443243,None,109.471600443243,None,109.471600443243,109.57162969297497,,,,,,,,,,,,,,,,,,1001,001,2013_Jan_22_1028,FPVS,2021.2.2,120.06563496617713,
1,0,1,0,,,,,,,,,,,,,,,,,,,,,,,,,96,0,96,0,,,,,,,,,,,,,,,,,,,None,0,109.72994378557996,None,palm,none,none,7,blue,109.72994378557996,None,109.72994378557996,None,109.72994378557996,109.8299654889397,,,,,,,,,,,,,,,,,,1001,001,2013_Jan_22_1028,FPVS,2021.2.2,120.06563496617713,
1,0,1,0,,,,,,,,,,,,,,,,,,,,,,,,,97,0,97,0,,,,,,,,,,,,,,,,,,,None,0,109.98001841918085,None,beak,none,none,7,blue,109.98001841918085,None,109.98001841918085,None,109.98001841918085,110.07997763859566,,,,,,,,,,,,,,,,,,1001,001,2013_Jan_22_1028,FPVS,2021.2.2,120.06563496617713,
1,0,1,0,,,,,,,,,,,,,,,,,,,,,,,,,98,0,98,0,,,,,,,,,,,,,,,,,,,None,0,110.22999525182422,None,chair,none,none,7,red,110.22999525182422,None,110.22999525182422,None,110.22999525182422,110.32993183212966,,,,,,,,,,,,,,,,,,1001,001,2013_Jan_22_1028,FPVS,2021.2.2,120.06563496617713,
1,0,1,0,,,,,,,,,,,,,,,,,,,,,,,,,99,0,99,0,,,,,,,,,,,,,,,,,,,space,0,110.48002219236514,None,flag,cond3,target,6,red,110.48002219236514,None,110.48002219236514,None,110.48002219236514,110.58001189911738,0.14019284296227852,,,,,,,,,,,,,,,,,1001,001,2013_Jan_22_1028,FPVS,2021.2.2,120.06563496617713,
1,0,1,0,,,,,,,,,,,,,,,,,,,,,,,,,100,0,100,0,,,,,,,,,,,,,,,,,,,None,0,110.73004128468165,None,bar,none,none,7,blue,110.73004128468165,None,110.73004128468165,None,110.73004128468165,110.83006389360708,,,,,,,,,,,,,,,,,,1001,001,2013_Jan_22_1028,FPVS,2021.2.2,120.06563496617713,
1,0,1,0,,,,,,,,,,,,,,,,,,,,,,,,,101,0,101,0,,,,,,,,,,,,,,,,,,,None,0,110.98005766030474,None,net,none,none,7,blue,110.98005766030474,None,110.98005766030474,None,110.98005766030474,111.08006608205505,,,,,,,,,,,,,,,,,,1001,001,2013_Jan_22_1028,FPVS,2021.2.2,120.06563496617713,
1,0,1,0,,,,,,,,,,,,,,,,,,,,,,,,,102,0,102,0,,,,,,,,,,,,,,,,,,,None,0,111.23008701568506,None,hammer,none,none,7,blue,111.23008701568506,None,111.23008701568506,None,111.23008701568506,111.33007762800116,,,,,,,,,,,,,,,,,,1001,001,2013_Jan_22_1028,FPVS,2021.2.2,120.06563496617713,
1,0,1,0,,,,,,,,,,,,,,,,,,,,,,,,,103,0,103,0,,,,,,,,,,,,,,,,,,,None,0,111.48003487026654,None,cave,cond3,target,6,blue,111.48003487026654,None,111.48003487026654,None,111.48003487026654,111.58011302047635,,,,,,,,,,,,,,,,,,1001,001,2013_Jan_22_1028,FPVS,2021.2.2,120.06563496617713,
1,0,1,0,,,,,,,,,,,,,,,,,,,,,,,,,104,0,104,0,,,,,,,,,,,,,,,,,,,None,0,111.72172035506628,None,boot,none,none,7,blue,111.72172035506628,None,111.72172035506628,None,111.72172035506628,111.82183593527225,,,,,,,,,,,,,,,,,,1001,001,2013_Jan_22_1028,FPVS,2021.2.2,120.06563496617713,
1,0,1,0,,,,,,,,,,,,,,,,,,,,,,,,,105,0,105,0,,,,,,,,,,,,,,,,,,,None,0,111.98008271425351,None,couch,none,none,7,blue,111.98008271425351,None,111.98008271425351,None,111.98008271425351,112.08014003648168,,,,,,,,,,,,,,,,,,1001,001,2013_Jan_22_1028,FPVS,2021.2.2,120.06563496617713,
1,0,1,0,,,,,,,,,,,,,,,,,,,,,,,,,106,0,106,0,,,,,,,,,,,,,,,,,,,None,0,112.23010542882912,None,magazine,none,none,7,blue,112.23010542882912,None,112.23010542882912,None,112.23010542882912,112.33013618783298,,,,,,,,,,,,,,,,,,1001,001,2013_Jan_22_1028,FPVS,2021.2.2,120.06563496617713,
1,0,1,0,,,,,,,,,,,,,,,,,,,,,,,,,107,0,107,0,,,,,,,,,,,,,,,,,,,None,0,112.48017855315629,None,beaver,cond3,target,6,blue,112.48017855315629,None,112.48017855315629,None,112.48017855315629,112.58011000192892,,,,,,,,,,,,,,,,,,1001,001,2013_Jan_22_1028,FPVS,2021.2.2,120.06563496617713,
1,0,1,0,,,,,,,,,,,,,,,,,,,,,,,,,108,0,108,0,,,,,,,,,,,,,,,,,,,None,0,112.73019613619726,None,hen,none,none,7,blue,112.73019613619726,None,112.73019613619726,None,112.73019613619726,112.83019278561005,,,,,,,,,,,,,,,,,,1001,001,2013_Jan_22_1028,FPVS,2021.2.2,120.06563496617713,
1,0,1,0,,,,,,,,,,,,,,,,,,,,,,,,,109,0,109,0,,,,,,,,,,,,,,,,,,,None,0,112.97190788236549,None,claw,none,none,7,red,112.97190788236549,None,112.97190788236549,None,112.97190788236549,113.07182755880058,,,,,,,,,,,,,,,,,,1001,001,2013_Jan_22_1028,FPVS,2021.2.2,120.06563496617713,
1,0,1,0,,,,,,,,,,,,,,,,,,,,,,,,,110,0,110,0,,,,,,,,,,,,,,,,,,,space,0,113.23024579131379,None,plug,none,none,7,red,113.23024579131379,None,113.23024579131379,None,113.23024579131379,113.3301856920225,0.09388137287169229,,,,,,,,,,,,,,,,,1001,001,2013_Jan_22_1028,FPVS,2021.2.2,120.06563496617713,
1,0,1,0,,,,,,,,,,,,,,,,,,,,,,,,,111,0,111,0,,,,,,,,,,,,,,,,,,,None,0,113.47192493716102,None,orchard,cond3,target,6,blue,113.47192493716102,None,113.47192493716102,None,113.47192493716102,113.57192641625079,,,,,,,,,,,,,,,,,,1001,001,2013_Jan_22_1028,FPVS,2021.2.2,120.06563496617713,
1,0,1,0,,,,,,,,,,,,,,,,,,,,,,,,,112,0,112,0,,,,,,,,,,,,,,,,,,,None,0,113.72192440891558,None,swing,none,none,7,blue,113.72192440891558,None,113.72192440891558,None,113.72192440891558,113.8219455085673,,,,,,,,,,,,,,,,,,1001,001,2013_Jan_22_1028,FPVS,2021.2.2,120.06563496617713,
1,0,1,0,,,,,,,,,,,,,,,,,,,,,,,,,113,0,113,0,,,,,,,,,,,,,,,,,,,None,0,113.97195165131234,None,lobster,none,none,7,red,113.97195165131234,None,113.97195165131234,None,113.97195165131234,114.07191630411398,,,,,,,,,,,,,,,,,,1001,001,2013_Jan_22_1028,FPVS,2021.2.2,120.06563496617713,
1,0,1,0,,,,,,,,,,,,,,,,,,,,,,,,,114,0,114,0,,,,,,,,,,,,,,,,,,,space,0,114.23031491606525,None,scalp,none,none,7,red,114.23031491606525,None,114.23031491606525,None,114.23031491606525,114.33032635636118,0.13379020064712677,,,,,,,,,,,,,,,,,1001,001,2013_Jan_22_1028,FPVS,2021.2.2,120.06563496617713,
1,0,1,0,,,,,,,,,,,,,,,,,,,,,,,,,115,0,115,0,,,,,,,,,,,,,,,,,,,None,0,114.4803005024969,None,chimney,cond3,target,6,blue,114.4803005024969,None,114.4803005024969,None,114.4803005024969,114.58034967464664,,,,,,,,,,,,,,,,,,1001,001,2013_Jan_22_1028,FPVS,2021.2.2,120.06563496617713,
1,0,1,0,,,,,,,,,,,,,,,,,,,,,,,,,116,0,116,0,,,,,,,,,,,,,,,,,,,None,0,114.73036517488981,None,radish,none,none,7,blue,114.73036517488981,None,114.73036517488981,None,114.73036517488981,114.8303086978558,,,,,,,,,,,,,,,,,,1001,001,2013_Jan_22_1028,FPVS,2021.2.2,120.06563496617713,
1,0,1,0,,,,,,,,,,,,,,,,,,,,,,,,,117,0,117,0,,,,,,,,,,,,,,,,,,,None,0,114.98032208511722,None,feather,none,none,7,blue,114.98032208511722,None,114.98032208511722,None,114.98032208511722,115.08038665185995,,,,,,,,,,,,,,,,,,1001,001,2013_Jan_22_1028,FPVS,2021.2.2,120.06563496617713,
1,0,1,0,,,,,,,,,,,,,,,,,,,,,,,,,118,0,118,0,,,,,,,,,,,,,,,,,,,None,0,115.2304081891998,None,button,none,none,7,blue,115.2304081891998,None,115.2304081891998,None,115.2304081891998,115.33041661095012,,,,,,,,,,,,,,,,,,1001,001,2013_Jan_22_1028,FPVS,2021.2.2,120.06563496617713,
1,0,1,0,,,,,,,,,,,,,,,,,,,,,,,,,119,0,119,0,,,,,,,,,,,,,,,,,,,None,0,115.48037475878118,None,map,cond3,target,6,blue,115.48037475878118,None,115.48037475878118,None,115.48037475878118,115.5803708044823,,,,,,,,,,,,,,,,,,1001,001,2013_Jan_22_1028,FPVS,2021.2.2,120.06563496617713,
1,0,1,0,,,,,,,,,,,,,,,,,,,,,,,,,120,0,120,0,,,,,,,,,,,,,,,,,,,None,0,115.7221031069621,None,squirrel,none,none,7,blue,115.7221031069621,None,115.7221031069621,None,115.7221031069621,115.82204361137883,,,,,,,,,,,,,,,,,,1001,001,2013_Jan_22_1028,FPVS,2021.2.2,120.06563496617713,
1,0,1,0,,,,,,,,,,,,,,,,,,,,,,,,,121,0,121,0,,,,,,,,,,,,,,,,,,,None,0,115.97214151798471,None,jungle,none,none,7,blue,115.97214151798471,None,115.97214151798471,None,115.97214151798471,116.07208413538683,,,,,,,,,,,,,,,,,,1001,001,2013_Jan_22_1028,FPVS,2021.2.2,120.06563496617713,
1,0,1,0,,,,,,,,,,,,,,,,,,,,,,,,,122,0,122,0,,,,,,,,,,,,,,,,,,,None,0,116.21373705005135,None,oven,none,none,7,red,116.21373705005135,None,116.21373705005135,None,116.21373705005135,116.31376297938004,,,,,,,,,,,,,,,,,,1001,001,2013_Jan_22_1028,FPVS,2021.2.2,120.06563496617713,
1,0,1,0,,,,,,,,,,,,,,,,,,,,,,,,,123,0,123,0,,,,,,,,,,,,,,,,,,,space,0,116.47210635190095,None,storm,cond3,target,6,red,116.47210635190095,None,116.47210635190095,None,116.47210635190095,116.57220714122013,0.09993235433648806,,,,,,,,,,,,,,,,,1001,001,2013_Jan_22_1028,FPVS,2021.2.2,120.06563496617713,
1,0,1,0,,,,,,,,,,,,,,,,,,,,,,,,,124,0,124,0,,,,,,,,,,,,,,,,,,,None,0,116.71387726160901,None,waiter,none,none,7,blue,116.71387726160901,None,116.71387726160901,None,116.71387726160901,116.81384131070263,,,,,,,,,,,,,,,,,,1001,001,2013_Jan_22_1028,FPVS,2021.2.2,120.06563496617713,
1,0,1,0,,,,,,,,,,,,,,,,,,,,,,,,,125,0,125,0,,,,,,,,,,,,,,,,,,,None,0,116.96384081264114,None,dress,none,none,7,blue,116.96384081264114,None,116.96384081264114,None,116.96384081264114,117.06389149406277,,,,,,,,,,,,,,,,,,1001,001,2013_Jan_22_1028,FPVS,2021.2.2,120.06563496617713,
1,0,1,0,,,,,,,,,,,,,,,,,,,,,,,,,126,0,126,0,,,,,,,,,,,,,,,,,,,None,0,117.22232180076935,None,butcher,none,none,7,blue,117.22232180076935,None,117.22232180076935,None,117.22232180076935,117.32221944180492,,,,,,,,,,,,,,,,,,1001,001,2013_Jan_22_1028,FPVS,2021.2.2,120.06563496617713,
1,0,1,0,,,,,,,,,,,,,,,,,,,,,,,,,127,0,127,0,,,,,,,,,,,,,,,,,,,None,0,117.47227750357706,None,flag,cond3,target,6,blue,117.47227750357706,None,117.47227750357706,None,117.47227750357706,117.57222132839706,,,,,,,,,,,,,,,,,,1001,001,2013_Jan_22_1028,FPVS,2021.2.2,120.06563496617713,
1,0,1,0,,,,,,,,,,,,,,,,,,,,,,,,,128,0,128,0,,,,,,,,,,,,,,,,,,,None,0,117.7223059533917,None,soup,none,none,7,blue,117.7223059533917,None,117.7223059533917,None,117.7223059533917,117.82232463820401,,,,,,,,,,,,,,,,,,1001,001,2013_Jan_22_1028,FPVS,2021.2.2,120.06563496617713,
1,0,1,0,,,,,,,,,,,,,,,,,,,,,,,,,129,0,129,0,,,,,,,,,,,,,,,,,,,None,0,117.96395461190332,None,rag,none,none,7,red,117.96395461190332,None,117.96395461190332,None,117.96395461190332,118.06395971325037,,,,,,,,,,,,,,,,,,1001,001,2013_Jan_22_1028,FPVS,2021.2.2,120.06563496617713,
1,0,1,0,,,,,,,,,,,,,,,,,,,,,,,,,130,0,130,0,,,,,,,,,,,,,,,,,,,space,0,118.22232481931678,None,laundry,none,none,7,red,118.22232481931678,None,118.22232481931678,None,118.22232481931678,118.32227649236302,0.07769893665499694,,,,,,,,,,,,,,,,,1001,001,2013_Jan_22_1028,FPVS,2021.2.2,120.06563496617713,
1,0,1,0,,,,,,,,,,,,,,,,,,,,,,,,,131,0,131,0,,,,,,,,,,,,,,,,,,,None,0,118.46401573750154,None,beaver,cond3,target,6,blue,118.46401573750154,None,118.46401573750154,None,118.46401573750154,118.5639538270807,,,,,,,,,,,,,,,,,,1001,001,2013_Jan_22_1028,FPVS,2021.2.2,120.06563496617713,
1,0,1,0,,,,,,,,,,,,,,,,,,,,,,,,,132,0,132,0,,,,,,,,,,,,,,,,,,,None,0,118.72237839854643,None,brush,none,none,7,blue,118.72237839854643,None,118.72237839854643,None,118.72237839854643,118.82242938182208,,,,,,,,,,,,,,,,,,1001,001,2013_Jan_22_1028,FPVS,2021.2.2,120.06563496617713,
1,0,1,0,,,,,,,,,,,,,,,,,,,,,,,,,133,0,133,0,,,,,,,,,,,,,,,,,,,None,0,118.97238149255827,None,grape,none,none,7,blue,118.97238149255827,None,118.97238149255827,None,118.97238149255827,119.07240138478846,,,,,,,,,,,,,,,,,,1001,001,2013_Jan_22_1028,FPVS,2021.2.2,120.06563496617713,
1,0,1,0,,,,,,,,,,,,,,,,,,,,,,,,,134,0,134,0,,,,,,,,,,,,,,,,,,,None,0,119.21402924550421,None,sheep,none,none,7,blue,119.21402924550421,None,119.21402924550421,None,119.21402924550421,119.31401925411046,,,,,,,,,,,,,,,,,,1001,001,2013_Jan_22_1028,FPVS,2021.2.2,120.06563496617713,
1,0,1,0,,,,,,,,,,,,,,,,,,,,,,,,,135,0,135,0,,,,,,,,,,,,,,,,,,,None,0,119.4640987475741,None,coconut,cond3,target,6,blue,119.4640987475741,None,119.4640987475741,None,119.4640987475741,119.56409811367848,,,,,,,,,,,,,,,,,,1001,001,2013_Jan_22_1028,FPVS,2021.2.2,120.06563496617713,
1,0,1,0,,,,,,,,,,,,,,,,,,,,,,,,,136,0,136,0,,,,,,,,,,,,,,,,,,,None,0,119.72237749298074,None,muzzle,none,none,7,blue,119.72237749298074,None,119.72237749298074,None,119.72237749298074,119.82245926544783,,,,,,,,,,,,,,,,,,1001,001,2013_Jan_22_1028,FPVS,2021.2.2,120.06563496617713,
1,0,1,0,,,,,,,,,,,,,,,,,,,,,,,,,137,0,137,0,,,,,,,,,,,,,,,,,,,None,0,119.97248170835337,None,nest,none,none,7,blue,119.97248170835337,None,119.97248170835337,None,119.97248170835337,120.07248741340845,,,,,,,,,,,,,,,,,,1001,001,2013_Jan_22_1028,FPVS,2021.2.2,120.06563496617713,
1,0,1,0,,,,,,,,,,,,,,,,,,,,,,,,,138,0,138,0,,,,,,,,,,,,,,,,,,,None,0,120.22249627284691,None,coin,none,none,7,blue,120.22249627284691,None,120.22249627284691,None,120.22249627284691,120.32253457822299,,,,,,,,,,,,,,,,,,1001,001,2013_Jan_22_1028,FPVS,2021.2.2,120.06563496617713,
1,0,1,0,,,,,,,,,,,,,,,,,,,,,,,,,139,0,139,0,,,,,,,,,,,,,,,,,,,None,0,120.47245740904145,None,computer,cond3,target,6,blue,120.47245740904145,None,120.47245740904145,None,120.47245740904145,120.57243806014776,,,,,,,,,,,,,,,,,,1001,001,2013_Jan_22_1028,FPVS,2021.2.2,120.06563496617713,
1,0,1,0,,,,,,,,,,,,,,,,,,,,,,,,,140,0,140,0,,,,,,,,,,,,,,,,,,,None,0,120.71418424794865,None,vulture,none,none,7,blue,120.71418424794865,None,120.71418424794865,None,120.71418424794865,120.81420625316423,,,,,,,,,,,,,,,,,,1001,001,2013_Jan_22_1028,FPVS,2021.2.2,120.06563496617713,
1,0,1,0,,,,,,,,,,,,,,,,,,,,,,,,,141,0,141,0,,,,,,,,,,,,,,,,,,,None,0,120.97250012149743,None,pig,none,none,7,blue,120.97250012149743,None,120.97250012149743,None,120.97250012149743,121.07257042348101,,,,,,,,,,,,,,,,,,1001,001,2013_Jan_22_1028,FPVS,2021.2.2,120.06563496617713,
